Time,AccX,AccY,AccZ,GyroX,GyroY,GyroZ
2025-03-26 18:03:58.720512,0.0,0.0,0.0,-0.007635815477475192,0.0,0.004363323129985824
2025-03-26 18:03:58.781109,-0.24,3.8000000000000003,-1.45,-0.003272492347489368,-0.006544984694978736,-0.001090830782496456
2025-03-26 18:03:58.836416,0.01,-0.22,-0.55,-0.008726646259971648,-0.004363323129985824,0.00545415391248228
2025-03-26 18:03:58.891690,,,,0.06763150851478027,0.022907446432425576,-0.038179077387375956
2025-03-26 18:03:58.946426,0.0,-0.26,-0.5,-0.022907446432425576,-0.02399827721492203,0.020725784867432664
2025-03-26 18:03:59.003339,-0.02,-0.24,-0.53,-0.001090830782496456,-0.01090830782496456,-0.008726646259971648
2025-03-26 18:03:59.057887,0.0,-0.22,-0.51,-0.028361600344907856,-0.006544984694978736,0.004363323129985824
2025-03-26 18:03:59.112864,-0.04,-0.23,-0.48,0.11999138607461016,0.05126904677733343,-0.044724062082354694
2025-03-26 18:03:59.167331,0.72,-0.03,-1.49,1.6253378659197193,1.2173671532660448,-0.830122225479803
2025-03-26 18:03:59.221858,0.48,-0.88,-0.9500000000000001,-0.2596177262341565,0.039269908169872414,0.030543261909900768
2025-03-26 18:03:59.276154,,,,-0.009817477042468103,0.02399827721492203,0.24216443371421323
2025-03-26 18:03:59.332616,0.11,0.01,0.07,-0.1505346479845109,-0.003272492347489368,0.1189005552921137
2025-03-26 18:03:59.386919,,,,-0.4068798818711781,0.13744467859455345,0.3839724354387525
2025-03-26 18:03:59.441329,,,,-0.003272492347489368,-0.11562806294462433,0.09708393964218458
2025-03-26 18:03:59.497457,0.34,-0.35000000000000003,-0.32,0.008726646259971648,-0.09053895494720585,0.09926560120717749
2025-03-26 18:03:59.553150,0.0,-0.2,-0.56,0.10362892433716332,0.061086523819801536,-0.04581489286485115
2025-03-26 18:03:59.609122,0.05,-0.24,-0.46,0.04690572364734761,0.014180800172453928,0.004363323129985824
2025-03-26 18:03:59.663549,0.16,-0.33,-0.43,-0.022907446432425576,-0.004363323129985824,0.017453292519943295
2025-03-26 18:03:59.718303,-0.12,-0.12,-0.61,-0.2181661564992912,-0.16798794050445423,0.13962634015954636
2025-03-26 18:03:59.772857,0.14,-0.35000000000000003,-0.36,-0.18544123302439752,-0.05126904677733343,0.08835729338221293
2025-03-26 18:03:59.827419,-0.09,-0.36,-0.46,0.06872233929727672,0.2301652951067522,-0.05235987755982989
2025-03-26 18:03:59.882148,0.05,-0.18,-0.39,-0.13744467859455345,-0.03490658503988659,0.04036073895236887
2025-03-26 18:03:59.939052,-0.59,-0.24,-0.02,-0.1341721862470641,-0.13199052468207118,0.014180800172453928
2025-03-26 18:03:59.993493,-0.31,-0.27,-1.09,0.9261153343394911,0.8770279491271507,-0.6741334235828098
2025-03-26 18:04:00.050868,0.29,1.32,2.96,-0.47123889803846897,-0.3861540970037454,0.20398535632683726
2025-03-26 18:04:00.106591,0.31,0.45,0.02,-0.9261153343394911,-0.6915867161027531,0.47123889803846897
2025-03-26 18:04:00.162721,-0.06,-0.06,-0.35000000000000003,0.2454369260617026,0.16907877128695067,-0.08835729338221293
2025-03-26 18:04:00.217383,-0.15,-0.03,-0.13,0.1712604328519436,0.11126473981463851,-0.08290313946973066
2025-03-26 18:04:00.272250,0.03,0.01,0.14,0.11235557059713497,0.05345070834232634,-0.028361600344907856
2025-03-26 18:04:00.327249,-0.06,-0.02,-0.02,-0.003272492347489368,0.015271630954950384,-0.006544984694978736
2025-03-26 18:04:00.381728,-0.04,0.0,-0.03,-0.05781403147231216,-0.05345070834232634,0.0545415391248228
2025-03-26 18:04:00.436597,-0.07,-0.05,-0.04,-0.015271630954950384,-0.02181661564992912,0.018544123302439753
2025-03-26 18:04:00.493623,-0.02,-0.04,-0.1,-0.018544123302439753,-0.02399827721492203,0.018544123302439753
2025-03-26 18:04:00.548208,-0.04,0.01,-0.07,-0.006544984694978736,-0.011999138607461015,-0.013089969389957472
2025-03-26 18:04:00.605152,-0.01,0.02,-0.06,0.03490658503988659,0.006544984694978736,0.018544123302439753
2025-03-26 18:04:00.660625,-0.02,-0.06,0.0,-0.022907446432425576,-0.05672320068981571,0.05235987755982989
2025-03-26 18:04:00.716858,-0.04,-0.04,-0.08,-0.2519819107566813,-0.22689280275926285,0.13526301702956053
2025-03-26 18:04:00.771151,0.01,0.01,0.05,0.008726646259971648,-0.001090830782496456,-0.002181661564992912
2025-03-26 18:04:00.826734,-0.08,-0.01,-0.06,-0.011999138607461015,0.001090830782496456,-0.001090830782496456
2025-03-26 18:04:00.881267,0.04,-0.02,0.11,0.05235987755982989,0.0272707695624114,0.02399827721492203
2025-03-26 18:04:00.935835,-0.08,0.0,-0.04,0.08290313946973066,0.007635815477475192,-0.018544123302439753
2025-03-26 18:04:00.990664,-0.01,0.01,0.03,-0.030543261909900768,-0.019634954084936207,0.02181661564992912
2025-03-26 18:04:01.047711,0.04,0.04,0.22,0.044724062082354694,0.039269908169872414,-0.050178215994836975
2025-03-26 18:04:01.101159,,,,0.29670597283903605,0.272707695624114,-0.14180800172453928
2025-03-26 18:04:01.158383,0.32,0.0,0.11,0.10471975511965978,0.038179077387375956,0.06326818538479445
2025-03-26 18:04:01.213037,-0.23,0.32,0.3,-0.8999353955595761,-0.8312130562622995,0.5486878835957173
2025-03-26 18:04:01.270252,-0.11,-0.04,0.27,0.03599741582238305,-0.008726646259971648,-0.006544984694978736
2025-03-26 18:04:01.324699,0.1,0.0,0.23,-0.39051742013373125,0.06872233929727672,0.1189005552921137
2025-03-26 18:04:01.379284,1.58,1.09,-0.64,-0.41560652813114973,0.13526301702956053,0.1090830782496456
2025-03-26 18:04:01.434029,-0.26,-0.06,-0.2,-0.07526732399225546,-0.013089969389957472,0.015271630954950384
2025-03-26 18:04:01.488748,-0.04,-0.02,0.09,0.30325095753401476,0.272707695624114,-0.1189005552921137
2025-03-26 18:04:01.543612,-0.06,-0.03,0.14,0.2552544031041707,0.30325095753401476,-0.12871803233458182
2025-03-26 18:04:01.600179,-0.03,0.01,0.16,0.13853550937704992,0.1832595714594046,-0.08726646259971647
2025-03-26 18:04:01.655545,-0.06,-0.01,-0.05,0.23125612588924865,0.16907877128695067,-0.07417649320975901
2025-03-26 18:04:01.712585,0.23,-0.3,0.07,0.2181661564992912,0.13962634015954636,-0.0719948316447661
2025-03-26 18:04:01.767539,0.61,0.68,-0.5,0.07853981633974483,0.13526301702956053,0.34470252726888007
2025-03-26 18:04:01.824477,-0.06,0.0,-0.02,0.05890486225480862,0.039269908169872414,-0.014180800172453928
2025-03-26 18:04:01.879494,-0.1,-0.02,-0.01,0.004363323129985824,-0.003272492347489368,0.011999138607461015
2025-03-26 18:04:01.934176,-0.21,0.11,-0.03,-0.05781403147231216,-0.11453723216212788,0.08835729338221293
2025-03-26 18:04:01.988625,0.24,0.15,0.92,-0.5683228376806536,-0.4145156973486533,0.30325095753401476
2025-03-26 18:04:02.043110,-0.13,-0.04,0.01,-0.008726646259971648,0.0,-0.02945243112740431
2025-03-26 18:04:02.097901,-0.07,0.01,0.04,-0.0916297857297023,-0.04690572364734761,0.026179938779914945
2025-03-26 18:04:02.156324,0.06,0.0,0.32,-0.5388704065532492,-0.34143003492139073,0.2454369260617026
2025-03-26 18:04:02.212696,-0.04,-0.04,0.12,-0.3643374813538163,-0.2923426497090502,0.15926129424448257
2025-03-26 18:04:02.271549,-0.25,0.0,-0.15,0.16144295580947549,0.025089107997418487,-0.020725784867432664
2025-03-26 18:04:02.329365,1.4000000000000001,0.0,0.75,0.7744898555724837,0.5966844380255614,-0.2585268954516601
2025-03-26 18:04:02.387623,0.2,0.18,0.81,-0.681769239060285,-0.421060682043632,0.24980024919168842
2025-03-26 18:04:02.445669,0.1,0.0,0.15,0.08617563181722002,0.04799655442984406,0.016362461737446838
2025-03-26 18:04:02.505703,0.08,0.05,0.37,0.23234695667174513,0.17671458676442586,-0.12217304763960307
2025-03-26 18:04:02.566250,0.17,-0.08,0.0,-0.2083486794568231,-0.001090830782496456,-0.05126904677733343
2025-03-26 18:04:02.627124,-0.06,0.0,0.04,0.16253378659197193,0.17671458676442586,-0.05781403147231216
2025-03-26 18:04:02.687044,-0.09,-0.08,-0.2,0.037088246604879506,-0.21925698728178766,0.13853550937704992
2025-03-26 18:04:02.745446,-0.09,-0.13,-0.27,-0.11344640137963143,-0.17780541754692233,0.1505346479845109
2025-03-26 18:04:02.804565,0.03,0.05,0.15,-0.13199052468207118,-0.020725784867432664,0.020725784867432664
2025-03-26 18:04:02.863829,-0.05,-0.08,0.0,-0.1505346479845109,-0.037088246604879506,0.04254240051736178
2025-03-26 18:04:02.921261,-0.07,0.0,-0.02,-0.015271630954950384,0.05345070834232634,-0.039269908169872414
2025-03-26 18:04:02.975330,-0.24,-0.1,-0.44,0.47451139038595835,0.3141592653589793,-0.17016960206944712
2025-03-26 18:04:03.033684,-0.07,0.0,0.04,0.04908738521234052,0.018544123302439753,0.02399827721492203
2025-03-26 18:04:03.087812,0.03,0.03,0.21,-0.32288591161895097,-0.20507618710933373,0.10144726277217041
2025-03-26 18:04:03.150131,-0.19,-0.08,-0.32,-0.008726646259971648,0.017453292519943295,-0.015271630954950384
2025-03-26 18:04:03.204451,-0.06,-0.06,-0.32,0.2181661564992912,0.12217304763960307,-0.016362461737446838
2025-03-26 18:04:03.259003,0.0,0.07,0.25,0.039269908169872414,0.04581489286485115,-0.037088246604879506
2025-03-26 18:04:03.315645,-0.19,-0.09,-0.27,-0.36760997370130566,-0.22252947962927702,0.16471544815696484
2025-03-26 18:04:03.371512,-0.09,0.01,0.02,0.22252947962927702,0.17235126363444003,-0.1265363707695889
2025-03-26 18:04:03.427186,-0.03,0.01,0.24,0.36324665057131983,0.3425208657038872,-0.19853120241435498
2025-03-26 18:04:03.483370,-0.18,-0.08,-0.19,-0.19416787928436915,-0.2301652951067522,0.11126473981463851
2025-03-26 18:04:03.538679,-0.26,0.29,0.3,-0.44178646691106466,-0.3534291735288517,0.24870941840919197
2025-03-26 18:04:03.592963,-0.1,0.0,0.0,-0.13744467859455345,-0.09490227807719166,0.04036073895236887
2025-03-26 18:04:03.647416,-0.26,0.17,0.03,-0.16798794050445423,-0.1461713248545251,0.08290313946973066
2025-03-26 18:04:03.701705,-0.05,-0.03,-0.14,-0.4603305902135044,-0.4756022211684548,0.3687008044838021
2025-03-26 18:04:03.756011,-0.52,1.9000000000000001,-0.24,-1.2064588454410803,-0.3097959422289935,-0.9272061651219876
2025-03-26 18:04:03.811296,13.530000000000001,0.3,-1.3,-0.5235987755982988,-1.3744467859455345,-3.003057144212743
2025-03-26 18:04:03.868565,-0.91,4.17,0.67,-6.590799587843587,-2.420553506359636,6.489352325071416
2025-03-26 18:04:03.923113,1.6300000000000001,-1.77,-1.55,0.04690572364734761,-0.7046766854927106,0.9588402578143848
2025-03-26 18:04:03.979961,2.74,1.56,0.41000000000000003,-2.321287905152458,-3.036872898470133,3.2015883466270982
2025-03-26 18:04:04.035060,3.39,-1.02,2.31,-4.984005845226307,-4.8334711972417965,0.9304786574694769
2025-03-26 18:04:04.091621,0.32,1.55,1.27,-2.931062312567977,-2.129301687433082,1.4780757102826978
2025-03-26 18:04:04.145871,-0.93,1.36,-2.8000000000000003,-0.6337726846304409,1.1584622910112363,-0.8203047484373349
2025-03-26 18:04:04.200139,0.9500000000000001,-1.28,3.44,-1.732239282604372,-1.3569934934255912,2.5514532002592105
2025-03-26 18:04:04.254508,3.09,-0.8200000000000001,-0.15,0.5345070834232635,2.7303494485886293,1.3569934934255912
2025-03-26 18:04:04.308797,10.16,-10.08,-0.06,4.331689037293427,6.997679469714765,7.123125009701857
2025-03-26 18:04:04.363052,6.03,-8.6,-2.46,4.2476950670411995,-6.205736321622338,-5.630868499246706
2025-03-26 18:04:04.418509,0.74,3.2600000000000002,-4.8,3.8004544462176524,0.2999784651865254,1.2708178616083712
2025-03-26 18:04:04.474432,-1.6500000000000001,13.68,3.15,-0.9915651812892785,-4.569490147877654,-0.17998707911191522
2025-03-26 18:04:04.528257,,,,-0.96647607329186,-0.48105637508093707,-0.4265148359561143
2025-03-26 18:04:04.584759,0.39,-2.62,-3.99,-0.6403176693254197,-1.595885434792315,0.8988445647770797
2025-03-26 18:04:04.640209,-0.02,-2.4,-3.81,0.2912518189265537,0.8464846872172498,0.46687557490848314
2025-03-26 18:04:04.696291,0.9400000000000001,-3.48,-1.6500000000000001,0.2476185876266955,-0.6643159465403417,1.878410607458897
2025-03-26 18:04:04.750574,0.58,-3.42,0.41000000000000003,-0.4625122517784973,-0.06217735460229799,1.8740472843289113
2025-03-26 18:04:04.805096,1.5,-3.34,4.36,-0.507236313860852,0.1308996938995747,2.0343994093558906
2025-03-26 18:04:04.859377,0.93,0.27,-4.7,0.11999138607461016,2.864521634835693,1.992947839621025
2025-03-26 18:04:04.913641,1.1500000000000001,-0.15,1.71,1.3100877697782436,2.2591105505501603,1.79441663720667
2025-03-26 18:04:04.968152,-2.88,1.6500000000000001,-3.25,1.7169676516494217,1.1988230299636051,1.1082840750163994
2025-03-26 18:04:05.024037,-1.32,-0.65,-1.41,-0.2792526803190927,-0.9915651812892785,1.349357677948116
2025-03-26 18:04:05.079533,0.59,-1.12,0.0,0.4046982203061852,0.8999353955595761,0.5945027764605685
2025-03-26 18:04:05.135726,0.62,-2.48,-5.96,0.2879793265790644,0.050178215994836975,1.141008998491293
2025-03-26 18:04:05.190754,-1.16,-0.9,-2.0100000000000002,0.18762289458939044,-1.4671674024577332,1.8053249450316347
2025-03-26 18:04:05.248050,-3.7600000000000002,1.24,2.0100000000000002,-0.37088246604879505,-2.011491962923465,0.9053895494720584
2025-03-26 18:04:05.302523,-0.81,-0.58,-2.82,1.1257373675363425,-0.04581489286485115,-0.43196898986859655
2025-03-26 18:04:05.356788,-1.92,2.47,4.2,-0.37960911230876665,-0.8344855486097889,0.5181446216858165
2025-03-26 18:04:05.411236,-1.8900000000000001,3.8000000000000003,1.84,0.20289452554434081,0.8868454261696187,-0.8508480103472357
2025-03-26 18:04:05.465490,3.3000000000000003,1.74,-1.21,0.04363323129985824,-0.4636030825609938,-1.315541923690726
2025-03-26 18:04:05.519965,5.43,2.72,0.93,-0.4734205596034619,0.9937468428542714,-1.054833366674073
2025-03-26 18:04:05.574397,3.18,-2.27,-6.640000000000001,2.370375290364799,1.3744467859455345,-1.3973542323779602
2025-03-26 18:04:05.631729,2.02,7.17,9.14,1.325359400733194,-2.1413008260405433,1.4682582332402296
2025-03-26 18:04:05.686300,4.19,0.5700000000000001,1.26,5.238169417547981,3.4262994878213684,-1.6449728200046556
2025-03-26 18:04:05.743104,-3.25,-4.55,-1.77,1.4180800172453927,-0.6021385919380436,0.35452000431134817
2025-03-26 18:04:05.798772,1.79,1.04,24.810000000000002,-12.32093368829747,-10.319259202416474,3.67500890623056
2025-03-26 18:04:05.854921,1.19,-7.26,-6.5200000000000005,7.1951198413466235,5.862124625135954,-4.957825906446392
2025-03-26 18:04:05.909136,1.1300000000000001,0.31,4.84,-2.7499844026735656,-3.901901708989823,1.930770485018727
2025-03-26 18:04:05.963426,-0.29,-0.59,-2.34,1.8915005768488546,1.906772207803805,-0.20398535632683726
2025-03-26 18:04:06.017685,1.26,-0.05,-0.78,1.2282754610910094,0.6174102228929941,0.8595746566072073
2025-03-26 18:04:06.071962,326.42,-1.31,0.33,-0.856302164259718,-0.8017606251348951,0.9446594576419308
2025-03-26 18:04:06.126589,-1.59,-0.16,-0.08,-0.19525871006686563,-0.09926560120717749,0.3741549583962844
2025-03-26 18:04:06.182371,0.14,-0.19,-0.02,0.12762720155208535,0.031634092692397225,-0.008726646259971648
2025-03-26 18:04:06.238027,0.08,-0.09,-0.04,-0.014180800172453928,-0.004363323129985824,-0.001090830782496456
2025-03-26 18:04:06.294161,0.49,-0.22,-0.03,-0.18216874067690814,-0.014180800172453928,0.030543261909900768
2025-03-26 18:04:06.349397,-0.21,-0.06,-0.59,-0.3643374813538163,-0.21271200258680892,0.04908738521234052
2025-03-26 18:04:06.406441,0.03,-0.11,0.21,-0.06872233929727672,-0.04581489286485115,-0.00545415391248228
2025-03-26 18:04:06.461052,0.14,-0.38,0.09,-0.26398104936414235,-0.09599310885968812,0.055632369907319255
2025-03-26 18:04:06.515311,0.05,0.0,0.5700000000000001,-0.31852258848896514,-0.1538071403320003,0.04363323129985824
2025-03-26 18:04:06.569797,0.0,0.01,-0.06,0.028361600344907856,0.018544123302439753,-0.016362461737446838
2025-03-26 18:04:06.624091,-0.16,0.17,0.01,0.34033920413889424,0.07963064712224129,-0.020725784867432664
2025-03-26 18:04:06.678348,0.01,-0.48,0.4,-0.0272707695624114,0.003272492347489368,0.013089969389957472
2025-03-26 18:04:06.732734,-1.26,1.08,-1.0,0.08726646259971647,-0.6534076387153771,0.7886706557449377
2025-03-26 18:04:06.789075,0.65,-1.01,0.0,-0.10253809355466686,0.10035643198967395,0.06654067773228381
2025-03-26 18:04:06.843541,-0.4,-2.68,-3.24,4.442953777108065,2.981240528562814,-2.2023873498603446
2025-03-26 18:04:06.900854,-1.42,1.03,-2.33,1.822778237551578,1.1955505376161157,-0.24980024919168842
2025-03-26 18:04:06.955076,-0.23,-0.43,-0.52,0.038179077387375956,0.017453292519943295,-0.032724923474893676
2025-03-26 18:04:07.012251,0.0,-0.12,-0.07,-0.03381575425739013,-0.016362461737446838,0.006544984694978736
2025-03-26 18:04:07.066485,0.02,-0.18,-0.04,-0.013089969389957472,-0.007635815477475192,-0.002181661564992912
2025-03-26 18:04:07.120757,0.03,-0.1,-0.08,0.022907446432425576,0.0,-0.003272492347489368
2025-03-26 18:04:07.175480,-0.01,-0.15,-0.02,0.008726646259971648,-0.002181661564992912,0.001090830782496456
2025-03-26 18:04:07.231826,0.0,-0.08,0.05,0.014180800172453928,-0.001090830782496456,-0.002181661564992912
2025-03-26 18:04:07.285544,,,,0.02399827721492203,0.001090830782496456,0.001090830782496456
2025-03-26 18:04:07.340915,0.02,-0.11,0.02,0.007635815477475192,0.001090830782496456,0.001090830782496456
2025-03-26 18:04:07.396577,0.02,-0.06,0.02,-0.009817477042468103,-0.009817477042468103,0.003272492347489368
2025-03-26 18:04:07.452371,0.04,-0.09,0.03,-0.011999138607461015,-0.014180800172453928,0.006544984694978736
2025-03-26 18:04:07.507657,0.01,-0.07,0.02,-0.007635815477475192,-0.007635815477475192,0.003272492347489368
2025-03-26 18:04:07.563942,0.03,-0.07,0.08,-0.011999138607461015,-0.007635815477475192,0.002181661564992912
2025-03-26 18:04:07.619010,0.0,-0.06,0.06,-0.004363323129985824,-0.006544984694978736,-0.001090830782496456
2025-03-26 18:04:07.673327,0.02,-0.07,0.06,-0.002181661564992912,0.0,0.001090830782496456
2025-03-26 18:04:07.728516,0.03,-0.04,0.07,0.01090830782496456,0.003272492347489368,-0.001090830782496456
2025-03-26 18:04:07.784141,0.0,-0.06,0.04,0.002181661564992912,-0.002181661564992912,0.001090830782496456
2025-03-26 18:04:07.839875,0.0,-0.06,0.02,-0.011999138607461015,-0.009817477042468103,0.003272492347489368
2025-03-26 18:04:07.898526,0.0,-0.06,0.07,-0.014180800172453928,-0.006544984694978736,0.003272492347489368
2025-03-26 18:04:07.958963,0.0,-0.1,0.01,-0.007635815477475192,-0.003272492347489368,0.0
2025-03-26 18:04:08.019804,0.0,-0.09,0.0,-0.002181661564992912,-0.001090830782496456,-0.001090830782496456
2025-03-26 18:04:08.078473,0.0,-0.09,0.03,0.004363323129985824,-0.001090830782496456,-0.001090830782496456
2025-03-26 18:04:08.139069,0.0,-0.09,0.02,0.006544984694978736,-0.004363323129985824,0.003272492347489368
2025-03-26 18:04:08.199316,0.03,-0.04,0.04,0.001090830782496456,-0.007635815477475192,0.001090830782496456
2025-03-26 18:04:08.259531,0.01,-0.06,0.02,-0.003272492347489368,-0.01090830782496456,0.00545415391248228
2025-03-26 18:04:08.319916,0.03,-0.05,0.05,-0.003272492347489368,-0.006544984694978736,0.003272492347489368
2025-03-26 18:04:08.378822,-0.01,-0.06,0.04,-0.006544984694978736,-0.003272492347489368,0.0
2025-03-26 18:04:08.438758,0.02,-0.05,0.05,-0.002181661564992912,-0.004363323129985824,0.001090830782496456
2025-03-26 18:04:08.499497,-0.01,-0.06,0.07,-0.001090830782496456,0.0,-0.001090830782496456
2025-03-26 18:04:08.560761,0.0,-0.1,-0.03,0.003272492347489368,0.001090830782496456,0.0
2025-03-26 18:04:08.622041,0.03,-0.08,0.02,0.003272492347489368,-0.003272492347489368,0.002181661564992912
2025-03-26 18:04:08.680986,0.01,-0.06,0.02,0.0,-0.003272492347489368,-0.001090830782496456
2025-03-26 18:04:08.741356,1.31,-0.08,0.04,-0.002181661564992912,-0.00545415391248228,0.002181661564992912
2025-03-26 18:04:08.801906,0.0,-0.05,0.05,-0.004363323129985824,0.0,0.001090830782496456
2025-03-26 18:04:08.862171,-0.01,-0.08,0.03,-0.002181661564992912,-0.001090830782496456,0.0
2025-03-26 18:04:08.922742,0.0,-0.09,0.02,0.002181661564992912,0.003272492347489368,0.0
2025-03-26 18:04:08.983125,-0.01,-0.08,0.03,0.003272492347489368,0.003272492347489368,0.0
2025-03-26 18:04:09.045178,0.0,-0.09,0.03,0.003272492347489368,0.003272492347489368,0.0
2025-03-26 18:04:09.105651,0.01,-0.09,0.03,0.001090830782496456,-0.00545415391248228,0.001090830782496456
2025-03-26 18:04:09.166099,0.0,-0.07,0.03,0.0,-0.002181661564992912,0.001090830782496456
2025-03-26 18:04:09.226373,0.01,-0.05,0.07,-0.003272492347489368,0.0,0.001090830782496456
2025-03-26 18:04:09.285631,0.0,-0.05,0.09,-0.003272492347489368,0.003272492347489368,0.0
2025-03-26 18:04:09.346144,0.01,-0.07,0.05,0.001090830782496456,0.003272492347489368,-0.002181661564992912
2025-03-26 18:04:09.406515,-0.01,-0.08,0.01,0.001090830782496456,0.003272492347489368,-0.003272492347489368
2025-03-26 18:04:09.467334,-0.02,-0.09,0.0,0.001090830782496456,0.002181661564992912,-0.002181661564992912
2025-03-26 18:04:09.528662,-0.01,-0.1,0.0,0.002181661564992912,0.0,-0.001090830782496456
2025-03-26 18:04:09.588522,0.0,-0.09,0.04,0.004363323129985824,-0.001090830782496456,0.0
2025-03-26 18:04:09.648668,0.04,-0.04,0.05,-0.001090830782496456,-0.003272492347489368,0.001090830782496456
2025-03-26 18:04:09.709265,0.02,-0.06,0.05,0.0,0.0,0.0
2025-03-26 18:04:09.770010,-0.01,-0.07,0.04,-0.001090830782496456,-0.002181661564992912,0.0
2025-03-26 18:04:09.831708,0.0,-0.09,0.04,0.0,0.0,-0.001090830782496456
2025-03-26 18:04:09.890413,0.0,-0.08,0.04,0.0,0.002181661564992912,0.001090830782496456
2025-03-26 18:04:09.951384,0.0,-0.1,0.03,0.001090830782496456,-0.001090830782496456,0.0
2025-03-26 18:04:10.013269,0.0,-0.08,0.04,0.003272492347489368,0.0,0.0
2025-03-26 18:04:10.073552,0.02,-0.07,0.03,0.002181661564992912,0.001090830782496456,0.0
2025-03-26 18:04:10.133655,0.01,-0.05,0.05,0.002181661564992912,0.001090830782496456,0.001090830782496456
2025-03-26 18:04:10.192634,0.0,-0.06,0.02,0.0,0.003272492347489368,0.0
2025-03-26 18:04:10.254091,0.0,-0.06,0.05,-0.002181661564992912,0.003272492347489368,-0.001090830782496456
2025-03-26 18:04:10.316014,-0.01,-0.08,0.01,0.001090830782496456,0.0,-0.001090830782496456
2025-03-26 18:04:10.376668,-0.01,-0.1,-0.01,0.002181661564992912,0.002181661564992912,-0.001090830782496456
2025-03-26 18:04:10.437441,0.0,-0.09,0.01,0.002181661564992912,0.001090830782496456,0.0
2025-03-26 18:04:10.496328,0.03,-0.04,0.04,0.002181661564992912,-0.002181661564992912,0.0
2025-03-26 18:04:10.557069,0.0,-0.07,0.05,0.001090830782496456,0.0,0.001090830782496456
2025-03-26 18:04:10.617253,0.03,-0.06,0.03,0.001090830782496456,-0.002181661564992912,0.001090830782496456
2025-03-26 18:04:10.678768,0.01,-0.07,0.02,0.0,0.001090830782496456,-0.001090830782496456
2025-03-26 18:04:10.740697,-0.01,-0.09,0.04,-0.002181661564992912,-0.002181661564992912,0.0
2025-03-26 18:04:10.800141,-0.01,-0.08,0.03,-0.003272492347489368,0.001090830782496456,0.0
2025-03-26 18:04:10.861047,0.0,-0.08,0.05,-0.001090830782496456,0.001090830782496456,0.001090830782496456
2025-03-26 18:04:10.922080,0.0,-0.1,0.02,-0.001090830782496456,-0.002181661564992912,0.001090830782496456
2025-03-26 18:04:10.982650,0.01,-0.08,-0.01,-0.001090830782496456,-0.002181661564992912,0.001090830782496456
2025-03-26 18:04:11.043246,0.0,-0.08,0.02,-0.002181661564992912,0.001090830782496456,0.0
2025-03-26 18:04:11.102572,0.01,-0.07,0.06,-0.001090830782496456,0.0,0.001090830782496456
2025-03-26 18:04:11.163179,-0.01,-0.09,0.04,-0.001090830782496456,0.0,0.0
2025-03-26 18:04:11.223850,0.01,-0.08,0.04,0.0,0.0,-0.003272492347489368
2025-03-26 18:04:11.284402,-0.01,-0.1,0.03,0.0,0.0,-0.002181661564992912
2025-03-26 18:04:11.345019,0.0,-0.11,0.02,0.1407171709420428,0.002181661564992912,-0.001090830782496456
2025-03-26 18:04:11.404808,0.0,-0.07,0.04,0.001090830782496456,0.0,-0.002181661564992912
2025-03-26 18:04:11.465967,0.0,-0.06,0.03,0.001090830782496456,-0.001090830782496456,0.002181661564992912
2025-03-26 18:04:11.526712,0.01,-0.05,0.03,-0.002181661564992912,0.0,0.0
2025-03-26 18:04:11.587412,0.0,-0.07,0.04,-0.001090830782496456,0.001090830782496456,-0.001090830782496456
2025-03-26 18:04:11.648288,-0.01,-0.09,0.04,0.0,0.001090830782496456,-0.002181661564992912
2025-03-26 18:04:11.708255,0.01,-0.1,0.05,0.0,-0.00545415391248228,0.0
2025-03-26 18:04:11.769581,0.0,-0.08,0.02,0.002181661564992912,0.001090830782496456,-0.001090830782496456
2025-03-26 18:04:11.830037,-0.01,-0.1,0.03,0.003272492347489368,0.0,-0.001090830782496456
2025-03-26 18:04:11.890521,0.0,-0.09,0.0,0.001090830782496456,0.0,0.001090830782496456
2025-03-26 18:04:11.951318,0.01,-0.08,0.02,0.001090830782496456,0.001090830782496456,0.001090830782496456
2025-03-26 18:04:12.011958,0.0,-0.07,0.06,-0.001090830782496456,0.001090830782496456,-0.001090830782496456
2025-03-26 18:04:12.073418,0.0,-0.06,0.09,0.002181661564992912,0.004363323129985824,-0.001090830782496456
2025-03-26 18:04:12.133619,-0.01,-0.08,0.05,-0.002181661564992912,-0.001090830782496456,0.001090830782496456
2025-03-26 18:04:12.193733,0.0,-0.09,0.0,0.001090830782496456,0.001090830782496456,-0.002181661564992912
2025-03-26 18:04:12.254384,-0.04,-0.11,0.01,-0.001090830782496456,0.001090830782496456,0.001090830782496456
2025-03-26 18:04:12.313296,0.17,0.36,-2.72,0.7744898555724837,1.0188359508516898,-0.7003133623627247
2025-03-26 18:04:12.372198,-1.09,0.33,-2.44,1.6875152205220174,0.8759371183446542,-0.10581058590215622
2025-03-26 18:04:12.432667,-0.17,-0.2,0.07,0.003272492347489368,-0.011999138607461015,0.011999138607461015
2025-03-26 18:04:12.493275,-0.1,-0.09,0.25,-0.1407171709420428,-0.04036073895236887,0.004363323129985824
2025-03-26 18:04:12.554020,-0.02,-0.03,0.0,0.016362461737446838,0.011999138607461015,-0.004363323129985824
2025-03-26 18:04:12.612759,-0.05,0.01,0.0,0.022907446432425576,0.007635815477475192,-0.003272492347489368
2025-03-26 18:04:12.673645,-0.02,-0.1,0.03,0.0,0.001090830782496456,0.0
2025-03-26 18:04:12.735101,-0.01,-0.08,0.0,-0.004363323129985824,0.002181661564992912,-0.002181661564992912
2025-03-26 18:04:12.795762,0.01,-0.11,-0.02,-0.004363323129985824,-0.002181661564992912,0.00545415391248228
2025-03-26 18:04:12.857094,0.02,-0.05,-0.03,-0.007635815477475192,0.0,0.001090830782496456
2025-03-26 18:04:12.916671,0.01,-0.09,0.0,-0.002181661564992912,-0.002181661564992912,0.001090830782496456
2025-03-26 18:04:12.977405,0.0,-0.04,0.03,-0.002181661564992912,0.0,-0.001090830782496456
2025-03-26 18:04:13.038763,0.01,-0.06,0.09,-0.001090830782496456,0.008726646259971648,-0.003272492347489368
2025-03-26 18:04:13.100420,0.0,-0.1,0.0,0.002181661564992912,0.001090830782496456,-0.001090830782496456
2025-03-26 18:04:13.161061,0.02,-0.1,-0.07,-0.009817477042468103,-0.00545415391248228,0.002181661564992912
2025-03-26 18:04:13.220407,0.05,-0.06,0.0,-0.01090830782496456,-0.009817477042468103,0.00545415391248228
2025-03-26 18:04:13.281041,0.06,-0.05,0.02,-0.008726646259971648,-0.008726646259971648,0.004363323129985824
2025-03-26 18:04:13.341536,0.0,-0.09,0.05,0.003272492347489368,-0.002181661564992912,0.003272492347489368
2025-03-26 18:04:13.401752,0.0,-0.05,0.06,0.006544984694978736,0.00545415391248228,-0.002181661564992912
2025-03-26 18:04:13.462167,0.0,-0.05,0.0,0.00545415391248228,0.001090830782496456,-0.003272492347489368
2025-03-26 18:04:13.521968,0.0,-0.05,0.03,-0.006544984694978736,-0.002181661564992912,0.0
2025-03-26 18:04:13.582609,0.01,-0.06,0.01,0.002181661564992912,-0.001090830782496456,0.0
2025-03-26 18:04:13.643068,-0.04,-0.09,0.01,0.00545415391248228,-0.001090830782496456,0.001090830782496456
2025-03-26 18:04:13.704240,-0.01,-0.07,-0.04,0.0,-0.002181661564992912,0.002181661564992912
2025-03-26 18:04:13.766071,-0.02,-0.08,-0.01,-0.006544984694978736,-0.00545415391248228,0.004363323129985824
2025-03-26 18:04:13.825537,0.01,-0.07,0.04,-0.009817477042468103,-0.004363323129985824,0.004363323129985824
2025-03-26 18:04:13.886027,0.01,-0.02,0.07,-0.003272492347489368,-0.002181661564992912,0.001090830782496456
2025-03-26 18:04:13.946499,-0.01,-0.04,0.04,-0.001090830782496456,0.001090830782496456,0.0
2025-03-26 18:04:14.007806,0.01,-0.04,0.02,0.003272492347489368,0.004363323129985824,-0.001090830782496456
2025-03-26 18:04:14.068785,-0.01,-0.08,0.02,0.001090830782496456,-0.001090830782496456,-0.004363323129985824
2025-03-26 18:04:14.128865,-0.01,-0.06,-0.02,0.14180800172453928,-0.001090830782496456,0.003272492347489368
2025-03-26 18:04:14.189651,-0.01,-0.08,0.01,-0.002181661564992912,-0.004363323129985824,0.003272492347489368
2025-03-26 18:04:14.250354,0.0,-0.04,0.0,-0.004363323129985824,-0.004363323129985824,0.002181661564992912
2025-03-26 18:04:14.311175,0.02,-0.04,0.03,-0.002181661564992912,-0.002181661564992912,-0.003272492347489368
2025-03-26 18:04:14.371545,0.03,-0.03,0.06,-0.004363323129985824,0.002181661564992912,-0.001090830782496456
2025-03-26 18:04:14.431457,0.02,-0.04,0.05,0.002181661564992912,0.001090830782496456,0.0
2025-03-26 18:04:14.492282,0.0,-0.06,0.0,0.006544984694978736,0.00545415391248228,-0.004363323129985824
2025-03-26 18:04:14.552775,-0.01,-0.09,0.0,0.004363323129985824,-0.002181661564992912,0.001090830782496456
2025-03-26 18:04:14.613371,0.0,-0.09,0.0,0.002181661564992912,0.0,0.002181661564992912
2025-03-26 18:04:14.673723,0.0,-0.09,-0.04,-0.002181661564992912,-0.00545415391248228,0.004363323129985824
2025-03-26 18:04:14.733700,0.02,-0.06,0.02,-0.01090830782496456,-0.004363323129985824,0.002181661564992912
2025-03-26 18:04:14.795244,0.03,-0.02,0.08,0.001090830782496456,-0.003272492347489368,0.0
2025-03-26 18:04:14.855866,0.02,-0.04,0.02,-0.006544984694978736,0.003272492347489368,-0.001090830782496456
2025-03-26 18:04:14.916761,0.0,-0.03,0.01,-0.006544984694978736,0.003272492347489368,0.001090830782496456
2025-03-26 18:04:14.976629,-0.01,-0.07,0.02,0.004363323129985824,0.006544984694978736,-0.001090830782496456
2025-03-26 18:04:15.036480,0.0,-0.08,0.02,0.006544984694978736,0.001090830782496456,0.0
2025-03-26 18:04:15.097065,0.0,-0.08,0.0,-0.002181661564992912,-0.001090830782496456,0.0
2025-03-26 18:04:15.157406,0.0,-0.07,0.0,-0.003272492347489368,-0.002181661564992912,0.002181661564992912
2025-03-26 18:04:15.217931,0.01,-0.04,0.01,-0.002181661564992912,-0.002181661564992912,0.001090830782496456
2025-03-26 18:04:15.278954,0.01,-0.04,0.05,-0.006544984694978736,-0.002181661564992912,0.002181661564992912
2025-03-26 18:04:15.340205,0.01,-0.03,0.06,-0.004363323129985824,0.002181661564992912,-0.001090830782496456
2025-03-26 18:04:15.400564,1.28,-0.05,0.05,0.004363323129985824,0.001090830782496456,-0.003272492347489368
2025-03-26 18:04:15.461358,0.0,-0.09,-0.01,0.002181661564992912,0.004363323129985824,-0.001090830782496456
2025-03-26 18:04:15.521939,0.0,-0.03,0.04,-0.00545415391248228,0.002181661564992912,0.002181661564992912
2025-03-26 18:04:15.581420,0.0,-0.05,0.03,0.0,0.002181661564992912,-0.001090830782496456
2025-03-26 18:04:15.641648,0.01,-0.08,-0.02,0.001090830782496456,0.004363323129985824,-0.002181661564992912
2025-03-26 18:04:15.702051,0.02,-0.05,0.0,-0.002181661564992912,-0.004363323129985824,0.001090830782496456
2025-03-26 18:04:15.762331,0.01,-0.03,0.06,0.001090830782496456,0.0,-0.002181661564992912
2025-03-26 18:04:15.824132,0.0,-0.04,0.02,0.004363323129985824,0.0,-0.001090830782496456
2025-03-26 18:04:15.884695,-0.01,-0.1,0.0,0.003272492347489368,0.00545415391248228,-0.002181661564992912
2025-03-26 18:04:15.945540,0.0,-0.08,0.0,0.00545415391248228,0.003272492347489368,0.0
2025-03-26 18:04:16.005894,-0.02,-0.07,0.02,0.002181661564992912,0.002181661564992912,-0.001090830782496456
2025-03-26 18:04:16.066347,0.03,-0.05,0.01,0.001090830782496456,-0.002181661564992912,0.0
2025-03-26 18:04:16.127822,0.03,-0.07,0.03,-0.004363323129985824,-0.006544984694978736,0.004363323129985824
2025-03-26 18:04:16.188193,0.01,-0.03,0.06,-0.004363323129985824,0.001090830782496456,-0.001090830782496456
2025-03-26 18:04:16.250206,0.01,-0.05,0.05,-0.002181661564992912,0.003272492347489368,-0.001090830782496456
2025-03-26 18:04:16.310701,-0.02,-0.08,0.0,0.002181661564992912,0.004363323129985824,-0.003272492347489368
2025-03-26 18:04:16.371601,0.01,-0.07,0.0,0.004363323129985824,0.007635815477475192,-0.001090830782496456
2025-03-26 18:04:16.432313,-0.02,-0.08,0.0,0.004363323129985824,0.0,-0.002181661564992912
2025-03-26 18:04:16.492953,0.01,-0.06,0.0,0.001090830782496456,0.0,0.0
2025-03-26 18:04:16.553497,0.03,-0.04,0.03,0.003272492347489368,-0.006544984694978736,0.001090830782496456
2025-03-26 18:04:16.614050,0.02,-0.05,0.04,-0.003272492347489368,-0.002181661564992912,0.0
2025-03-26 18:04:16.674554,0.0,-0.05,0.04,-0.003272492347489368,-0.002181661564992912,-0.001090830782496456
2025-03-26 18:04:16.735140,0.0,-0.08,0.0,0.13962634015954636,0.002181661564992912,-0.002181661564992912
2025-03-26 18:04:16.794593,0.02,-0.06,0.03,-0.002181661564992912,-0.003272492347489368,0.001090830782496456
2025-03-26 18:04:16.855317,0.0,-0.05,0.0,-0.001090830782496456,0.0,-0.001090830782496456
2025-03-26 18:04:16.916562,0.0,-0.06,-0.01,0.008726646259971648,0.002181661564992912,-0.001090830782496456
2025-03-26 18:04:16.977196,0.01,-0.07,0.0,-0.003272492347489368,-0.002181661564992912,0.002181661564992912
2025-03-26 18:04:17.037853,0.01,-0.06,0.0,-0.011999138607461015,-0.003272492347489368,0.002181661564992912
2025-03-26 18:04:17.097663,0.03,-0.04,0.05,0.0,-0.003272492347489368,0.001090830782496456
2025-03-26 18:04:17.158231,0.02,-0.08,-0.01,0.01090830782496456,0.003272492347489368,0.0
2025-03-26 18:04:17.218588,0.02,-0.04,0.0,-0.002181661564992912,-0.001090830782496456,0.0
2025-03-26 18:04:17.279196,0.01,-0.04,0.01,-0.00545415391248228,-0.007635815477475192,0.002181661564992912
2025-03-26 18:04:17.340316,0.0,-0.05,0.05,0.008726646259971648,0.004363323129985824,-0.002181661564992912
2025-03-26 18:04:17.399814,0.01,-0.08,-0.04,0.1559888018969932,0.00545415391248228,-0.003272492347489368
2025-03-26 18:04:17.460389,0.03,-0.08,0.07,-0.009817477042468103,-0.008726646259971648,0.002181661564992912
2025-03-26 18:04:17.521015,0.0,-0.07,0.01,-0.006544984694978736,-0.004363323129985824,0.003272492347489368
2025-03-26 18:04:17.581715,0.01,-0.04,-0.01,-0.007635815477475192,-0.002181661564992912,0.002181661564992912
2025-03-26 18:04:17.642288,-0.01,-0.05,0.02,0.004363323129985824,0.00545415391248228,-0.003272492347489368
2025-03-26 18:04:17.702039,0.0,-0.07,0.04,-0.006544984694978736,0.0,-0.002181661564992912
2025-03-26 18:04:17.762817,0.0,-0.06,0.05,-0.001090830782496456,0.0,-0.002181661564992912
2025-03-26 18:04:17.824096,1.28,-0.1,0.0,0.001090830782496456,-0.001090830782496456,-0.001090830782496456
2025-03-26 18:04:17.885497,-0.01,-0.06,0.0,-0.002181661564992912,0.0,0.0
2025-03-26 18:04:17.946779,0.02,-0.06,0.03,0.001090830782496456,-0.00545415391248228,0.0
2025-03-26 18:04:18.006621,0.02,-0.07,0.05,-0.004363323129985824,0.0,-0.001090830782496456
2025-03-26 18:04:18.067200,0.01,-0.06,0.07,-0.001090830782496456,0.001090830782496456,0.0
2025-03-26 18:04:18.127812,0.0,-0.06,0.01,0.003272492347489368,0.0,-0.002181661564992912
2025-03-26 18:04:18.188243,0.0,-0.09,0.0,0.003272492347489368,-0.003272492347489368,0.001090830782496456
2025-03-26 18:04:18.249409,-0.01,-0.07,0.0,0.001090830782496456,-0.004363323129985824,-0.001090830782496456
2025-03-26 18:04:18.309986,-0.01,-0.1,0.0,-0.002181661564992912,0.0,0.001090830782496456
2025-03-26 18:04:18.371992,0.03,-0.08,0.02,-0.006544984694978736,-0.003272492347489368,0.002181661564992912
2025-03-26 18:04:18.433056,0.02,-0.04,0.05,-0.00545415391248228,-0.004363323129985824,0.002181661564992912
2025-03-26 18:04:18.493517,0.01,-0.03,0.07,-0.002181661564992912,0.002181661564992912,-0.001090830782496456
2025-03-26 18:04:18.554097,0.02,-0.06,0.04,0.004363323129985824,0.008726646259971648,-0.002181661564992912
2025-03-26 18:04:18.616499,-0.01,-0.09,0.0,0.006544984694978736,0.001090830782496456,-0.003272492347489368
2025-03-26 18:04:18.677076,0.01,-0.07,0.01,0.001090830782496456,0.004363323129985824,-0.003272492347489368
2025-03-26 18:04:18.737445,0.01,-0.07,0.0,0.001090830782496456,0.0,0.0
2025-03-26 18:04:18.797864,0.02,-0.06,0.02,-0.00545415391248228,-0.004363323129985824,0.003272492347489368
2025-03-26 18:04:18.856769,0.0,-0.04,0.08,-0.006544984694978736,-0.004363323129985824,0.002181661564992912
2025-03-26 18:04:18.917311,0.01,-0.05,0.05,-0.001090830782496456,0.0,-0.003272492347489368
2025-03-26 18:04:18.977730,0.0,-0.09,0.03,0.001090830782496456,0.001090830782496456,-0.002181661564992912
2025-03-26 18:04:19.038104,-0.01,-0.09,0.0,0.002181661564992912,0.00545415391248228,-0.002181661564992912
2025-03-26 18:04:19.099946,-0.02,-0.1,0.0,0.00545415391248228,0.004363323129985824,-0.003272492347489368
2025-03-26 18:04:19.160057,0.0,-0.08,0.0,0.004363323129985824,-0.003272492347489368,-0.002181661564992912
2025-03-26 18:04:19.220890,0.0,-0.08,0.02,0.004363323129985824,0.0,-0.001090830782496456
2025-03-26 18:04:19.281269,-0.01,0.0,0.24,-0.037088246604879506,-0.020725784867432664,0.008726646259971648
2025-03-26 18:04:19.341671,-0.02,-0.03,0.08,-0.025089107997418487,-0.013089969389957472,0.00545415391248228
2025-03-26 18:04:19.401419,0.06,-0.06,0.01,0.01090830782496456,0.002181661564992912,-0.001090830782496456
2025-03-26 18:04:19.460766,-0.01,-0.04,0.02,-0.02399827721492203,-0.016362461737446838,0.003272492347489368
2025-03-26 18:04:19.519540,-0.21,0.04,0.24,-0.0272707695624114,-0.011999138607461015,-0.001090830782496456
2025-03-26 18:04:19.578412,0.0,0.1,0.06,-0.08290313946973066,-0.03490658503988659,0.003272492347489368
2025-03-26 18:04:19.638986,0.04,0.02,0.11,0.002181661564992912,0.002181661564992912,-0.003272492347489368
2025-03-26 18:04:19.699531,-0.21,-0.02,-0.19,-0.004363323129985824,-0.0272707695624114,0.019634954084936207
2025-03-26 18:04:19.760592,-0.05,-0.05,-0.16,0.05235987755982989,0.01090830782496456,-0.002181661564992912
2025-03-26 18:04:19.820682,0.01,-0.11,0.05,-0.011999138607461015,-0.009817477042468103,0.003272492347489368
2025-03-26 18:04:19.880854,0.02,-0.02,0.05,-0.006544984694978736,0.004363323129985824,-0.001090830782496456
2025-03-26 18:04:19.941215,0.04,-0.05,-0.02,0.00545415391248228,0.003272492347489368,-0.002181661564992912
2025-03-26 18:04:20.001383,0.01,-0.05,0.0,0.001090830782496456,-0.004363323129985824,0.001090830782496456
2025-03-26 18:04:20.061821,0.02,-0.05,0.03,0.0,-0.003272492347489368,0.0
2025-03-26 18:04:20.121150,-0.03,-0.06,0.0,0.009817477042468103,0.004363323129985824,0.0
2025-03-26 18:04:20.181526,0.0,-0.04,0.0,-0.001090830782496456,-0.002181661564992912,0.002181661564992912
2025-03-26 18:04:20.241888,0.02,-0.03,0.01,-0.003272492347489368,-0.003272492347489368,0.001090830782496456
2025-03-26 18:04:20.302656,0.02,-0.03,0.0,-0.00545415391248228,-0.003272492347489368,0.002181661564992912
2025-03-26 18:04:20.363915,0.01,-0.05,0.06,-0.001090830782496456,-0.001090830782496456,0.002181661564992912
2025-03-26 18:04:20.423327,0.01,0.0,0.03,0.001090830782496456,0.004363323129985824,-0.002181661564992912
2025-03-26 18:04:20.484910,0.0,-0.05,0.06,0.00545415391248228,0.003272492347489368,-0.002181661564992912
2025-03-26 18:04:20.545255,-0.03,-0.05,0.0,0.004363323129985824,0.003272492347489368,-0.001090830782496456
2025-03-26 18:04:20.605440,0.0,-0.09,0.0,0.004363323129985824,-0.001090830782496456,0.0
2025-03-26 18:04:20.665770,-0.03,-0.04,0.0,-0.004363323129985824,-0.006544984694978736,0.001090830782496456
2025-03-26 18:04:20.725957,0.0,-0.05,0.0,-0.001090830782496456,-0.002181661564992912,0.0
2025-03-26 18:04:20.787421,0.01,-0.04,0.01,-0.001090830782496456,0.001090830782496456,0.002181661564992912
2025-03-26 18:04:20.847616,0.02,-0.02,0.06,0.002181661564992912,0.001090830782496456,-0.002181661564992912
2025-03-26 18:04:20.908127,0.0,-0.01,0.02,0.001090830782496456,0.001090830782496456,-0.002181661564992912
2025-03-26 18:04:20.968794,-0.01,-0.04,0.0,0.001090830782496456,0.0,-0.003272492347489368
2025-03-26 18:04:21.028071,-0.02,-0.06,0.01,0.002181661564992912,-0.002181661564992912,0.0
2025-03-26 18:04:21.088645,-0.01,-0.08,0.0,0.002181661564992912,0.0,0.0
2025-03-26 18:04:21.149629,0.0,-0.05,0.0,0.001090830782496456,0.0,0.001090830782496456
2025-03-26 18:04:21.210666,0.01,-0.03,0.01,-0.002181661564992912,-0.003272492347489368,0.001090830782496456
2025-03-26 18:04:21.271256,0.02,-0.03,0.02,-0.004363323129985824,-0.004363323129985824,0.001090830782496456
2025-03-26 18:04:21.330583,0.0,-0.03,0.04,-0.001090830782496456,0.0,0.0
2025-03-26 18:04:21.391304,0.0,-0.04,0.03,0.0,0.002181661564992912,-0.001090830782496456
2025-03-26 18:04:21.452356,-0.02,-0.05,-0.01,0.003272492347489368,0.004363323129985824,-0.003272492347489368
2025-03-26 18:04:21.514193,0.0,-0.08,-0.01,0.004363323129985824,-0.001090830782496456,-0.001090830782496456
2025-03-26 18:04:21.575172,-0.02,-0.06,0.0,0.001090830782496456,-0.004363323129985824,0.002181661564992912
2025-03-26 18:04:21.636866,0.0,-0.06,0.01,0.0,-0.002181661564992912,0.001090830782496456
2025-03-26 18:04:21.697335,1.31,-0.04,0.02,-0.004363323129985824,0.0,-0.001090830782496456
2025-03-26 18:04:21.757968,0.01,-0.02,0.01,-0.003272492347489368,-0.003272492347489368,0.002181661564992912
2025-03-26 18:04:21.818769,0.0,-0.04,0.01,-0.001090830782496456,0.004363323129985824,0.0
2025-03-26 18:04:21.879056,0.0,-0.06,-0.01,0.0,0.001090830782496456,0.0
2025-03-26 18:04:21.940684,0.0,-0.06,0.02,0.002181661564992912,0.001090830782496456,0.0
2025-03-26 18:04:22.001418,0.0,-0.06,0.02,0.002181661564992912,-0.002181661564992912,-0.001090830782496456
2025-03-26 18:04:22.061955,0.01,-0.06,-0.01,-0.002181661564992912,-0.004363323129985824,0.0
2025-03-26 18:04:22.122501,0.0,-0.04,0.05,-0.003272492347489368,-0.001090830782496456,0.002181661564992912
2025-03-26 18:04:22.181489,0.0,-0.02,0.03,0.0,-0.001090830782496456,-0.002181661564992912
2025-03-26 18:04:22.242053,0.0,-0.05,0.04,0.004363323129985824,0.006544984694978736,-0.001090830782496456
2025-03-26 18:04:22.302369,-0.01,-0.06,-0.01,0.001090830782496456,0.004363323129985824,-0.002181661564992912
2025-03-26 18:04:22.363020,0.0,-0.06,0.0,0.003272492347489368,0.0,0.0
2025-03-26 18:04:22.424047,0.0,-0.06,-0.02,0.002181661564992912,-0.001090830782496456,0.0
2025-03-26 18:04:22.484466,0.0,-0.04,0.01,0.001090830782496456,-0.001090830782496456,0.001090830782496456
2025-03-26 18:04:22.545542,0.01,-0.05,0.01,-0.001090830782496456,-0.002181661564992912,0.003272492347489368
2025-03-26 18:04:22.605988,0.01,-0.05,0.02,0.0,-0.003272492347489368,0.001090830782496456
2025-03-26 18:04:22.668089,0.0,-0.05,0.0,0.0,0.0,0.0
2025-03-26 18:04:22.728827,0.0,-0.06,0.0,0.002181661564992912,0.003272492347489368,0.0
2025-03-26 18:04:22.787940,0.0,-0.06,0.0,0.003272492347489368,0.001090830782496456,-0.001090830782496456
2025-03-26 18:04:22.849057,-0.02,-0.05,0.0,0.002181661564992912,0.001090830782496456,-0.002181661564992912
2025-03-26 18:04:22.910054,0.0,-0.07,0.02,0.003272492347489368,0.0,0.0
2025-03-26 18:04:22.970684,0.01,-0.06,0.0,0.001090830782496456,0.0,0.001090830782496456
2025-03-26 18:04:23.031467,0.0,-0.05,0.04,-0.002181661564992912,-0.004363323129985824,0.001090830782496456
2025-03-26 18:04:23.090697,0.0,-0.02,0.03,-0.001090830782496456,0.0,0.002181661564992912
2025-03-26 18:04:23.151387,0.0,-0.03,0.03,-0.002181661564992912,0.0,0.001090830782496456
2025-03-26 18:04:23.212551,-0.01,-0.05,-0.02,0.002181661564992912,0.001090830782496456,-0.003272492347489368
2025-03-26 18:04:23.273572,-0.01,-0.05,-0.01,0.14289883250703572,0.0,0.0
2025-03-26 18:04:23.334386,0.0,-0.06,0.0,0.0,-0.003272492347489368,0.001090830782496456
2025-03-26 18:04:23.393484,0.0,-0.03,0.0,0.002181661564992912,-0.002181661564992912,0.002181661564992912
2025-03-26 18:04:23.454051,0.02,-0.05,0.04,-0.002181661564992912,0.004363323129985824,-0.001090830782496456
2025-03-26 18:04:23.514665,0.0,-0.02,0.05,-0.003272492347489368,-0.001090830782496456,-0.001090830782496456
2025-03-26 18:04:23.575306,0.02,-0.05,-0.02,0.0,0.001090830782496456,0.0
2025-03-26 18:04:23.635933,0.0,-0.06,0.02,-0.003272492347489368,-0.006544984694978736,0.0
2025-03-26 18:04:23.695054,0.0,-0.03,0.02,0.00545415391248228,0.0,0.0
2025-03-26 18:04:23.755965,-0.01,-0.02,0.13,-0.013089969389957472,-0.00545415391248228,0.002181661564992912
2025-03-26 18:04:23.816672,-0.02,-0.07,0.01,0.002181661564992912,0.004363323129985824,-0.004363323129985824
2025-03-26 18:04:23.877219,0.0,-0.07,-0.06,0.014180800172453928,0.006544984694978736,-0.003272492347489368
2025-03-26 18:04:23.938284,0.01,-0.04,0.01,-0.00545415391248228,-0.006544984694978736,0.003272492347489368
2025-03-26 18:04:23.998566,0.01,-0.02,0.04,-0.002181661564992912,-0.006544984694978736,0.002181661564992912
2025-03-26 18:04:24.059261,0.0,-0.03,0.06,-0.004363323129985824,0.001090830782496456,0.002181661564992912
2025-03-26 18:04:24.119710,0.0,-0.02,0.04,-0.001090830782496456,0.001090830782496456,-0.003272492347489368
2025-03-26 18:04:24.180194,0.0,-0.06,0.0,0.14289883250703572,0.003272492347489368,-0.001090830782496456
2025-03-26 18:04:24.240884,0.0,-0.07,-0.02,0.00545415391248228,0.0,-0.001090830782496456
2025-03-26 18:04:24.300289,0.01,-0.08,0.0,0.0,0.004363323129985824,-0.001090830782496456
2025-03-26 18:04:24.360942,0.0,-0.07,0.0,0.004363323129985824,0.001090830782496456,0.0
2025-03-26 18:04:24.422134,0.01,-0.02,0.02,0.002181661564992912,-0.001090830782496456,0.001090830782496456
2025-03-26 18:04:24.483749,0.02,-0.04,0.04,-0.003272492347489368,0.0,0.001090830782496456
2025-03-26 18:04:24.544561,0.0,-0.02,0.05,-0.001090830782496456,0.00545415391248228,-0.001090830782496456
2025-03-26 18:04:24.604738,0.0,-0.04,0.05,0.002181661564992912,0.003272492347489368,0.0
2025-03-26 18:04:24.666045,-0.02,-0.06,-0.03,0.0,-0.002181661564992912,0.0
2025-03-26 18:04:24.727636,0.0,-0.07,-0.03,0.007635815477475192,-0.001090830782496456,0.001090830782496456
2025-03-26 18:04:24.788185,0.0,-0.07,-0.04,-0.00545415391248228,-0.008726646259971648,0.004363323129985824
2025-03-26 18:04:24.848548,0.0,-0.02,0.0,-0.006544984694978736,-0.006544984694978736,0.003272492347489368
2025-03-26 18:04:24.907778,0.03,-0.04,0.04,-0.002181661564992912,-0.001090830782496456,-0.003272492347489368
2025-03-26 18:04:24.968276,0.03,-0.02,0.03,-0.002181661564992912,0.004363323129985824,-0.003272492347489368
2025-03-26 18:04:25.029298,-0.02,-0.05,0.05,0.001090830782496456,0.002181661564992912,-0.001090830782496456
2025-03-26 18:04:25.090581,-0.02,-0.04,-0.02,0.009817477042468103,0.00545415391248228,-0.002181661564992912
2025-03-26 18:04:25.151033,-0.05,-0.08,0.0,0.008726646259971648,0.003272492347489368,-0.001090830782496456
2025-03-26 18:04:25.210207,-0.02,-0.09,-0.09,0.007635815477475192,-0.002181661564992912,0.0
2025-03-26 18:04:25.270582,0.0,-0.14,-0.1,-0.001090830782496456,-0.01090830782496456,0.008726646259971648
2025-03-26 18:04:25.330894,0.21,-0.07,-0.23,-0.02181661564992912,-0.020725784867432664,0.013089969389957472
2025-03-26 18:04:25.391353,0.38,-0.22,-0.62,-0.03381575425739013,-0.04145156973486533,0.022907446432425576
2025-03-26 18:04:25.452073,0.45,-0.25,-0.79,-0.05999569303730508,-0.05890486225480862,0.031634092692397225
2025-03-26 18:04:25.511018,0.32,-0.34,-0.35000000000000003,-0.0272707695624114,-0.031634092692397225,0.018544123302439753
2025-03-26 18:04:25.571495,-0.05,-0.13,0.03,-0.004363323129985824,0.007635815477475192,0.001090830782496456
2025-03-26 18:04:25.631969,0.01,0.0,0.4,-0.011999138607461015,0.00545415391248228,-0.003272492347489368
2025-03-26 18:04:25.692870,0.0,-0.07,0.0,0.022907446432425576,0.015271630954950384,-0.006544984694978736
2025-03-26 18:04:25.754413,0.06,-0.1,-0.12,0.007635815477475192,-0.002181661564992912,0.003272492347489368
2025-03-26 18:04:25.814938,-0.02,-0.08,0.0,-0.003272492347489368,-0.011999138607461015,0.006544984694978736
2025-03-26 18:04:25.875297,-0.04,-0.05,0.0,-0.002181661564992912,-0.004363323129985824,0.003272492347489368
2025-03-26 18:04:25.935638,-0.01,-0.05,-0.09,-0.007635815477475192,-0.001090830782496456,0.003272492347489368
2025-03-26 18:04:25.996226,0.06,-0.16,-0.23,0.019634954084936207,-0.01090830782496456,0.007635815477475192
2025-03-26 18:04:26.056704,-0.11,-0.12,-0.18,0.002181661564992912,-0.017453292519943295,0.006544984694978736
2025-03-26 18:04:26.116010,-0.08,-0.11,-0.17,-0.001090830782496456,-0.011999138607461015,0.007635815477475192
2025-03-26 18:04:26.176421,-0.03,-0.11,-0.02,-0.022907446432425576,-0.008726646259971648,0.004363323129985824
2025-03-26 18:04:26.236593,0.05,-0.03,-0.01,-0.004363323129985824,-0.007635815477475192,0.002181661564992912
2025-03-26 18:04:26.296977,-0.01,-0.08,0.0,-0.016362461737446838,-0.004363323129985824,0.001090830782496456
2025-03-26 18:04:26.357559,0.0,0.0,0.03,0.001090830782496456,0.007635815477475192,-0.004363323129985824
2025-03-26 18:04:26.416791,-0.05,-0.07,0.06,0.01090830782496456,0.006544984694978736,-0.004363323129985824
2025-03-26 18:04:26.478116,0.0,-0.02,0.02,-0.004363323129985824,0.004363323129985824,-0.001090830782496456
2025-03-26 18:04:26.539415,-0.01,-0.02,0.04,-0.001090830782496456,0.006544984694978736,-0.001090830782496456
2025-03-26 18:04:26.599903,0.38,0.27,0.48,0.04799655442984406,-0.020725784867432664,-0.07853981633974483
2025-03-26 18:04:26.660665,-1.9000000000000001,5.95,3.54,-1.5751596499248823,0.3119776037939864,-0.6217735460229799
2025-03-26 18:04:26.719417,0.32,-0.48,4.25,0.5465062220307244,-0.6588617926278594,-0.978475211899321
2025-03-26 18:04:26.779277,-6.19,-14.48,3.5500000000000003,-15.357806586767603,-7.6249071696502275,2.1543907954305004
2025-03-26 18:04:26.840775,-0.77,0.96,-10.05,-7.5398223686155035,-3.3957562259114673,-0.18216874067690814
2025-03-26 18:04:26.902064,6.79,-4.7,13.99,-4.439681284760576,-3.733913768485369,3.2714015167068715
2025-03-26 18:04:26.962717,4.13,2.4,-5.4,-0.9053895494720584,5.233806094417996,3.3793937641740204
2025-03-26 18:04:27.021580,4.86,-7.3100000000000005,3.8200000000000003,-1.1639164449237185,1.0930124440614488,3.1470468075022753
2025-03-26 18:04:27.081420,5.1000000000000005,0.6900000000000001,-9.99,1.361356816555577,5.0396382151336265,2.6081764009490263
2025-03-26 18:04:27.142508,-0.7000000000000001,5.79,-1.44,-1.6940602052169962,-1.459531586980258,3.0270554214276655
2025-03-26 18:04:27.203131,1.24,2.12,-2.06,-2.2743821815051106,-4.339324852770901,5.167265416685712
2025-03-26 18:04:27.263695,1.28,0.03,3.35,1.9874936857085428,0.6763150851478027,1.9874936857085428
2025-03-26 18:04:27.322431,0.93,5.2,-1.8900000000000001,0.14180800172453928,-1.9536779314511525,3.839724354387525
2025-03-26 18:04:27.382397,5.13,-2.33,-5.4,1.4104442017679175,-1.6166112196597477,3.312853086441737
2025-03-26 18:04:27.443533,0.31,5.2,0.1,2.1849340573404015,-1.9514962698861598,3.916082509162277
2025-03-26 18:04:27.504226,-1.19,3.7800000000000002,6.0600000000000005,1.7213309747794074,-7.0009519620622545,-1.732239282604372
2025-03-26 18:04:27.565069,3.06,-2.08,1.5,2.5547256926067,0.46469391334349025,1.7496925751243153
2025-03-26 18:04:27.623792,5.1000000000000005,-3.73,-1.48,2.8176159111883456,2.0343994093558906,5.749769054538819
2025-03-26 18:04:27.683482,2.99,-2.96,-4.4,0.23889194136672387,1.4082625402029247,3.2506757318394386
2025-03-26 18:04:27.744755,0.36,3.2600000000000002,-0.76,-2.6659904324213386,-2.193660703600373,0.5857761302005968
2025-03-26 18:04:27.805607,-1.05,8.91,2.49,-2.366011967234813,-2.81325258805836,-1.9351338081487128
2025-03-26 18:04:27.866399,2.0,2.5100000000000002,3.19,-3.1448651459372825,-0.6348635154129374,-5.681046715241543
2025-03-26 18:04:27.925009,3.83,-0.44,-3.9,-0.6359543461954338,0.16907877128695067,-8.92954078551599
2025-03-26 18:04:27.984787,5.43,-0.77,5.71,-2.7358036025011114,0.6414085001079161,-3.1732267462821904
2025-03-26 18:04:28.046102,1.54,-3.98,-0.49,-1.337358539340655,-0.9424777960769379,-6.683520204355785
2025-03-26 18:04:28.106569,8.870000000000001,-10.15,-1.94,-3.6782813985780494,-3.1110493916798925,-5.743224069843841
2025-03-26 18:04:28.166949,0.9500000000000001,-1.3800000000000001,-8.11,-1.2446379228284563,-0.5770494839406252,-4.514948608752832
2025-03-26 18:04:28.225737,-3.43,0.6,-1.6500000000000001,0.34797501961636945,-0.46469391334349025,-2.7347127717186153
2025-03-26 18:04:28.284501,4.76,-5.9,25.93,0.7973973020049093,0.42542400517361784,-0.2945243112740431
2025-03-26 18:04:28.343504,-0.44,-3.61,6.01,2.34855867471487,8.438666933392584,-2.231839780987749
2025-03-26 18:04:28.403983,1.06,-6.66,3.16,-6.536258048718764,-5.359251634405088,3.057598683337566
2025-03-26 18:04:28.464426,-5.54,7.01,0.4,3.351032163829113,3.3313972097441766,-0.4636030825609938
2025-03-26 18:04:28.524985,3.59,-2.21,2.15,-0.26616271092913524,3.4197545031263896,-0.20180369476184434
2025-03-26 18:04:28.584613,-0.39,0.58,-0.13,0.022907446432425576,-0.6283185307179586,0.40251655874119224
2025-03-26 18:04:28.644313,-5.41,-0.44,0.14,0.06435901616729091,0.6970408700152354,0.7395832705325971
2025-03-26 18:04:28.704951,0.68,0.52,0.16,0.2279836335417593,1.1780972450961724,1.1017390903214206
2025-03-26 18:04:28.765425,-0.74,0.24,0.52,1.215185491701052,1.471530725587719,-0.20943951023931956
2025-03-26 18:04:28.826031,-1.32,-1.3,-1.26,1.878410607458897,0.4046982203061852,0.7352199474026113
2025-03-26 18:04:28.885685,-0.2,0.48,-1.45,1.8838647613713795,1.8107790989441168,-0.6806784082777885
2025-03-26 18:04:28.945391,0.36,-1.19,0.14,-2.033308578573394,-1.6089754041822726,0.581412807070611
2025-03-26 18:04:29.006332,-0.53,4.79,-1.96,-2.620175539556487,-2.2460205811602028,0.7668540400950086
2025-03-26 18:04:29.066923,0.01,0.5,3.0,-0.3010692959690218,-0.6392268385429232,2.2776546738526
2025-03-26 18:04:29.127511,0.1,0.76,0.2,-0.5235987755982988,-0.7003133623627247,-0.37960911230876665
2025-03-26 18:04:29.187307,-0.55,-0.25,-0.15,-0.8126689329598596,-0.7788531787024695,0.10471975511965978
2025-03-26 18:04:29.247382,2.79,0.38,-1.24,0.42978732830360367,0.770126532442498,1.1333731830138178
2025-03-26 18:04:29.308181,2.35,0.77,0.0,-0.8519388411297321,-2.0060378090109827,2.117302548825621
2025-03-26 18:04:29.368758,0.08,0.28,0.09,0.5028729907308662,0.30543261909900765,0.5083271446433485
2025-03-26 18:04:29.429421,-0.3,0.31,0.39,-0.11017390903214205,-0.3719732968312915,0.8028514559173916
2025-03-26 18:04:29.488061,-0.25,0.27,-0.11,0.08944812416470939,-0.025089107997418487,0.08726646259971647
2025-03-26 18:04:29.546698,0.0,0.63,0.22,-0.04145156973486533,-0.14944381720201447,-0.13308135546456762
2025-03-26 18:04:29.608070,-0.52,0.44,0.76,-0.346884188833873,0.7003133623627247,0.020725784867432664
2025-03-26 18:04:29.669358,-0.93,0.11,0.13,-0.018544123302439753,-0.06763150851478027,0.6915867161027531
2025-03-26 18:04:29.730245,-0.31,0.44,0.08,-0.6806784082777885,-1.1431906600562858,0.26616271092913524
2025-03-26 18:04:29.789422,-0.33,0.16,0.35000000000000003,0.5225079448158024,1.3264502315156905,0.8453938564347534
2025-03-26 18:04:29.849133,0.0,0.47000000000000003,0.0,-0.028361600344907856,0.5792311455056182,0.17235126363444003
2025-03-26 18:04:29.909541,-0.5,-0.51,0.23,0.3567016658763411,0.791943148092427,-0.7155849933176751
2025-03-26 18:04:29.969952,-1.6400000000000001,0.28,0.25,-0.04254240051736178,-0.03490658503988659,-0.9359328113819593
2025-03-26 18:04:30.030559,0.55,0.06,0.9,0.5137812985558308,-0.16035212502697901,-0.8279405639148101
2025-03-26 18:04:30.089604,-0.42,2.09,-1.04,-0.6959500392327389,0.14508049407202864,1.0831949670189809
2025-03-26 18:04:30.149444,0.24,0.07,0.73,-1.1333731830138178,-0.7221299780126539,-0.017453292519943295
2025-03-26 18:04:30.209388,-0.38,-0.09,-0.56,-0.3141592653589793,-0.37088246604879505,-0.007635815477475192
2025-03-26 18:04:30.270016,-1.42,1.05,0.67,-1.684242728174528,-2.255838058202671,-0.4690572364734761
2025-03-26 18:04:30.330622,-0.19,0.35000000000000003,-0.6,-0.7363107781851078,-2.0202186091834364,0.11999138607461016
2025-03-26 18:04:30.390515,-0.04,-0.06,-0.05,-0.2792526803190927,-0.7123125009701857,0.009817477042468103
2025-03-26 18:04:30.450343,-0.18,0.88,0.27,0.018544123302439753,0.7995789635699022,0.6468626540203984
2025-03-26 18:04:30.510346,-0.35000000000000003,0.17,0.29,-0.0272707695624114,-0.11671889372712078,-0.12980886311707826
2025-03-26 18:04:30.570689,-0.13,0.09,0.23,-0.04363323129985824,0.013089969389957472,0.006544984694978736
2025-03-26 18:04:30.631494,-0.07,0.48,0.36,-0.19853120241435498,-0.3425208657038872,-0.30652344988150415
2025-03-26 18:04:30.691476,-0.08,0.34,0.54,0.02945243112740431,-0.16035212502697901,0.044724062082354694
2025-03-26 18:04:30.750299,-0.44,0.37,0.15,0.12980886311707826,0.26398104936414235,0.08072147790473774
2025-03-26 18:04:30.809457,0.53,2.13,-1.2,0.09381144729469522,0.7832165018324554,0.7548549014875475
2025-03-26 18:04:30.870654,-0.18,0.14,0.44,0.2879793265790644,0.8181230868723419,0.24107360293171676
2025-03-26 18:04:30.931253,-0.44,0.23,0.18,0.18216874067690814,0.33052172709642613,-0.0545415391248228
2025-03-26 18:04:30.991699,-0.51,0.16,0.3,0.030543261909900768,0.13199052468207118,-0.21162117180431245
2025-03-26 18:04:31.050372,-0.75,0.43,0.4,-0.13744467859455345,-0.026179938779914945,-0.08508480103472356
2025-03-26 18:04:31.110501,-0.39,0.43,0.24,-0.09490227807719166,0.002181661564992912,0.09926560120717749
2025-03-26 18:04:31.170968,-0.13,0.23,0.27,-0.039269908169872414,0.1090830782496456,-0.003272492347489368
2025-03-26 18:04:31.231717,-0.01,0.37,0.04,0.06654067773228381,0.08290313946973066,0.04145156973486533
2025-03-26 18:04:31.292387,-0.29,0.3,0.4,0.002181661564992912,0.03599741582238305,-0.004363323129985824
2025-03-26 18:04:31.351019,-0.44,0.1,0.28,0.007635815477475192,0.16580627893946132,-0.011999138607461015
2025-03-26 18:04:31.409629,-0.06,-0.13,0.09,0.09599310885968812,0.2083486794568231,0.008726646259971648
2025-03-26 18:04:31.468386,0.03,-0.25,0.16,-0.08399397025222712,-0.1832595714594046,0.11453723216212788
2025-03-26 18:04:31.529070,0.01,0.34,0.07,0.10690141668465268,0.1538071403320003,0.18216874067690814
2025-03-26 18:04:31.589549,-0.29,0.55,0.48,0.15707963267948966,0.16035212502697901,0.04908738521234052
2025-03-26 18:04:31.649756,-0.4,0.61,0.24,0.0818123086872342,0.10799224746714914,-0.00545415391248228
2025-03-26 18:04:31.709454,0.0,0.15,0.22,-0.08944812416470939,0.0,-0.18435040224190105
2025-03-26 18:04:31.768221,0.26,0.27,0.1,-0.10035643198967395,0.038179077387375956,-0.055632369907319255
2025-03-26 18:04:31.827929,0.3,0.3,0.12,0.022907446432425576,0.026179938779914945,-0.10471975511965978
2025-03-26 18:04:31.888578,-0.22,0.12,0.16,0.2650718801466388,0.1810779098944117,0.016362461737446838
2025-03-26 18:04:31.949365,-0.2,0.12,0.28,0.05999569303730508,-0.06435901616729091,-0.0272707695624114
2025-03-26 18:04:32.009120,-0.12,0.15,0.34,0.003272492347489368,-0.12326387842209953,-0.06654067773228381
2025-03-26 18:04:32.067784,-0.03,-0.01,0.09,-0.055632369907319255,-0.11017390903214205,-0.032724923474893676
2025-03-26 18:04:32.127572,-0.18,0.09,0.1,0.018544123302439753,-0.05126904677733343,-0.031634092692397225
2025-03-26 18:04:32.187921,-0.33,0.05,0.12,0.12326387842209953,0.06981317007977318,-0.06763150851478027
2025-03-26 18:04:32.249312,-0.35000000000000003,0.03,0.19,0.13744467859455345,0.09490227807719166,-0.09272061651219876
2025-03-26 18:04:32.309545,-0.17,0.1,0.23,0.06217735460229799,0.0,-0.09272061651219876
2025-03-26 18:04:32.368385,0.08,0.17,0.29,-0.030543261909900768,-0.11344640137963143,-0.09708393964218458
2025-03-26 18:04:32.428389,-0.03,0.13,0.25,-0.09708393964218458,-0.10362892433716332,-0.13308135546456762
2025-03-26 18:04:32.489076,-0.06,0.18,0.23,0.02945243112740431,0.02181661564992912,-0.07308566242726255
2025-03-26 18:04:32.550301,-0.06,0.05,0.14,0.04363323129985824,0.07417649320975901,-0.08726646259971647
2025-03-26 18:04:32.610173,-0.19,0.1,0.14,0.00545415391248228,0.04908738521234052,-0.04581489286485115
2025-03-26 18:04:32.668941,-0.09,0.01,0.16,0.10799224746714914,0.15162547876700738,-0.11671889372712078
2025-03-26 18:04:32.727912,0.0,0.03,0.18,0.45160394395353276,0.5115996369908379,-0.3959715740462135
2025-03-26 18:04:32.789130,0.04,0.01,0.47000000000000003,0.7384924397501007,0.6784967467127956,-0.39924406639370286
2025-03-26 18:04:32.849695,-0.37,0.16,0.4,1.0821041362364843,0.56941366846315,-0.06763150851478027
2025-03-26 18:04:32.908568,3.97,-6.82,1.95,1.2500920767409385,0.7232208087951503,-0.46796640569097964
2025-03-26 18:04:32.967353,-0.12,-0.5700000000000001,-0.37,1.722421805561904,0.8715737952146683,-0.6970408700152354
2025-03-26 18:04:33.026104,0.5,-0.23,0.41000000000000003,0.6163193921104976,0.39269908169872414,0.4046982203061852
2025-03-26 18:04:33.086484,5.0,-6.87,3.88,8.393942871310228,13.074697759002522,-0.6250460383704692
2025-03-26 18:04:33.148123,-0.54,-2.33,-7.86,-0.3370667117914049,-0.830122225479803,-0.41015237421866746
2025-03-26 18:04:33.210177,0.14,1.42,3.2600000000000002,-1.7693275292092516,-2.62235720112148,1.2959069696057897
2025-03-26 18:04:33.269002,0.55,0.63,-1.1,0.9981101659842572,1.2097313377885697,-0.46796640569097964
2025-03-26 18:04:33.327885,-0.88,-0.62,-4.94,-0.5421428989007386,0.5094179754258449,0.16471544815696484
2025-03-26 18:04:33.388362,0.62,-1.08,-0.13,-2.3769202750597778,-2.5339999077392674,1.1562806294462433
2025-03-26 18:04:33.448829,0.49,0.55,0.99,2.110757564130642,3.1274118534173394,-1.2173671532660448
2025-03-26 18:04:33.509437,0.75,-0.45,1.2,-0.3752457891787809,-1.279544507868343,0.36760997370130566
2025-03-26 18:04:33.568088,-1.0,-0.6,-3.3000000000000003,2.703078679026218,4.076434634189256,-1.0799224746714915
2025-03-26 18:04:33.627184,0.58,0.44,1.56,-2.3856469213197493,-3.583379120500858,1.3100877697782436
2025-03-26 18:04:33.687596,-0.29,-1.23,-2.95,-34.938219132578986,1.8140515912916062,-0.6501351463678877
2025-03-26 18:04:33.748631,1.61,-1.77,1.22,-1.4682582332402296,-1.2315479534384988,0.7384924397501007
2025-03-26 18:04:33.810944,-0.12,0.8300000000000001,-2.15,0.07963064712224129,0.2879793265790644,-0.10799224746714914
2025-03-26 18:04:33.870721,-0.84,0.65,-3.2800000000000002,-0.3621558197888234,-1.8653206380689398,-0.19525871006686563
2025-03-26 18:04:33.930110,0.18,-0.42,-0.56,-1.315541923690726,-3.86590429316744,0.7723081940074908
2025-03-26 18:04:33.991012,2.15,0.06,-0.53,-8.263043177410655,-2.8667032964006864,1.7551467290367977
2025-03-26 18:04:34.051606,-0.44,-0.14,0.33,-1.6896968820870102,-0.1832595714594046,0.9533861039019025
2025-03-26 18:04:34.112405,-0.55,0.15,-0.08,-1.1115565673638885,-0.28907015736156083,0.06872233929727672
2025-03-26 18:04:34.171268,0.67,-0.41000000000000003,0.72,-2.9365164664804593,-0.9828385350293068,0.22580197197676638
2025-03-26 18:04:34.230171,5.94,0.0,21.98,9.100801218367932,7.012951100669715,-35.51745027808461
2025-03-26 18:04:34.291047,-2.2800000000000002,0.9400000000000001,-8.34,2.4740042147019623,4.002258140979497,0.2781618495365963
2025-03-26 18:04:34.351737,0.21,-1.04,1.94,-3.023782929080176,-5.598143575771812,2.488185014874416
2025-03-26 18:04:34.412414,0.3,-1.28,-1.01,0.6065019150680295,0.940296134511945,-0.24107360293171676
2025-03-26 18:04:34.471049,0.22,-0.3,0.27,1.6427911584396626,1.7060593438244571,-0.6326818538479445
2025-03-26 18:04:34.529979,1.62,-0.09,1.12,-5.0309115688736545,-3.7099154912704466,0.48978302134090873
2025-03-26 18:04:34.589826,-0.06,0.25,0.76,-4.532401901272775,-1.9187713464112661,-1.150826475533761
2025-03-26 18:04:34.650372,2.19,0.12,0.54,-0.9719302272043423,-0.21707532571679475,0.37306412761378793
2025-03-26 18:04:34.710901,-0.79,0.74,0.4,-0.9293878266869805,-0.7733990247899872,0.13199052468207118
2025-03-26 18:04:34.770594,0.97,-0.51,-0.13,-0.49741883681838395,-0.7853981633974483,-0.6621342849753488
2025-03-26 18:04:34.829461,-0.11,0.5700000000000001,0.6,-1.1944597068336194,-2.732531110153622,-0.7079491778402
2025-03-26 18:04:34.888249,-0.73,2.43,2.18,-0.2716168648416175,-0.5366887449882564,-0.5181446216858165
2025-03-26 18:04:34.948949,0.17,0.27,0.22,-0.5552328682906961,-2.0562160250058197,-0.09381144729469522
2025-03-26 18:04:35.009321,-0.07,-1.1,-0.04,0.1189005552921137,0.6392268385429232,0.001090830782496456
2025-03-26 18:04:35.070031,-0.04,0.6,-0.24,0.28907015736156083,-0.2999784651865254,-0.10253809355466686
2025-03-26 18:04:35.128811,0.09,0.01,0.77,0.10144726277217041,0.4363323129985824,0.09926560120717749
2025-03-26 18:04:35.187566,0.26,-0.2,0.27,0.13744467859455345,1.0133817969392076,0.4036073895236887
2025-03-26 18:04:35.248267,0.34,0.06,-0.56,-0.13744467859455345,-0.6217735460229799,0.1908953869368798
2025-03-26 18:04:35.310140,-0.17,-0.07,0.81,-0.16580627893946132,-1.5304355878425278,-0.4886921905584123
2025-03-26 18:04:35.371555,-0.14,0.79,-0.43,-0.14180800172453928,-0.14508049407202864,0.1559888018969932
2025-03-26 18:04:35.430330,1.1500000000000001,-1.17,-3.72,0.17671458676442586,2.138028333693054,0.5159629601208237
2025-03-26 18:04:35.489311,-0.04,-0.03,-0.06,0.4232423436086249,1.0701049976290233,0.3370667117914049
2025-03-26 18:04:35.550424,1.12,2.41,-0.02,-0.18435040224190105,-0.33161255787892263,-1.7398750980818474
2025-03-26 18:04:35.610959,-0.2,0.48,0.8,0.008726646259971648,-0.9632035809443706,-0.5759586531581288
2025-03-26 18:04:35.671528,0.27,-0.02,0.76,-0.037088246604879506,-0.9555677654668955,-0.8857545953871222
2025-03-26 18:04:35.730120,-0.55,0.3,0.17,-0.10690141668465268,-0.6774059159302992,-1.2522737383059315
2025-03-26 18:04:35.789290,-1.8900000000000001,1.06,1.6600000000000001,1.6875152205220174,5.650503453331642,1.2620912153483996
2025-03-26 18:04:35.850425,-0.8200000000000001,-1.02,0.3,-0.2585268954516601,-1.7093318361719465,-0.3119776037939864
2025-03-26 18:04:35.911015,-0.18,-0.27,0.41000000000000003,0.5748678223756323,0.4821472058634335,-0.35779249665883756
2025-03-26 18:04:35.971497,0.03,-0.88,0.71,0.8115781021773633,1.540253064884996,-0.20289452554434081
2025-03-26 18:04:36.030477,-1.28,2.37,-2.48,2.023491101530926,2.514364953654331,-0.16907877128695067
2025-03-26 18:04:36.089702,-0.24,-0.07,-0.2,-3.0336004061226443,0.3327033886614191,1.9034997154563156
2025-03-26 18:04:36.150442,-0.24,0.03,0.37,-0.17671458676442586,0.09381144729469522,0.28688849579656794
2025-03-26 18:04:36.211152,-1.52,1.28,-0.37,-0.030543261909900768,-0.16798794050445423,1.100648259538924
2025-03-26 18:04:36.271510,-0.39,0.75,-1.33,0.18435040224190105,0.34797501961636945,-0.06217735460229799
2025-03-26 18:04:36.331337,1.61,-0.53,1.82,-3.9248091554222486,-3.4033920413889427,-0.7384924397501007
2025-03-26 18:04:36.390184,0.04,0.09,0.22,-0.7930339788749234,-1.9220438387587555,-1.0471975511965976
2025-03-26 18:04:36.448901,0.06,1.08,0.34,-0.6261368691529657,-0.9337511498169663,-0.631591023065448
2025-03-26 18:04:36.509805,-0.4,-0.5,0.25,-0.5410520681182421,-1.0722866591940161,-0.5530512067257032
2025-03-26 18:04:36.571335,0.17,-0.1,-0.23,-0.05235987755982989,-0.6108652381980153,1.2380929381334775
2025-03-26 18:04:36.631416,0.27,-0.27,0.15,-0.13853550937704992,-0.48105637508093707,0.4188790204786391
2025-03-26 18:04:36.690302,0.38,-0.03,0.0,-0.14726215563702155,-0.5628686837681712,-0.20398535632683726
2025-03-26 18:04:36.749170,-0.03,-0.15,0.56,0.1810779098944117,0.2476185876266955,0.9850201965942997
2025-03-26 18:04:36.809356,-0.16,0.8,0.34,0.17998707911191522,0.17671458676442586,-0.16035212502697901
2025-03-26 18:04:36.869910,-0.06,-0.02,0.3,0.2007128639793479,0.21925698728178766,-0.07744898555724837
2025-03-26 18:04:36.931071,0.11,-0.03,0.1,-0.1439896632895322,-0.26070855701665296,-0.3665191429188092
2025-03-26 18:04:36.990850,0.23,-0.04,0.18,0.04908738521234052,-0.016362461737446838,-0.038179077387375956
2025-03-26 18:04:37.049509,0.08,0.03,0.09,-0.11235557059713497,-0.33052172709642613,-0.29343348049154666
2025-03-26 18:04:37.109074,-0.17,-0.01,0.15,-0.20616701789183017,-0.6719517620178169,-0.6730425928003133
2025-03-26 18:04:37.169803,-0.34,-0.14,0.4,0.16471544815696484,0.3643374813538163,-0.32615840396644036
2025-03-26 18:04:37.230738,0.07,0.04,0.16,-0.2781618495365963,-1.5969762655748114,-0.017453292519943295
2025-03-26 18:04:37.290628,-0.08,-0.14,0.22,0.28579766501407144,1.08646745936647,0.12217304763960307
2025-03-26 18:04:37.349300,-0.05,0.06,0.15,0.004363323129985824,-0.11235557059713497,-0.026179938779914945
2025-03-26 18:04:37.408091,-0.08,-0.07,0.25,-0.06654067773228381,-0.013089969389957472,0.0818123086872342
2025-03-26 18:04:37.469684,-0.15,0.16,0.24,0.09272061651219876,0.22252947962927702,0.05126904677733343
2025-03-26 18:04:37.530434,0.22,-0.02,-0.02,-0.17016960206944712,-0.6610434541928523,-0.07308566242726255
2025-03-26 18:04:37.590195,-0.12,0.06,0.29,0.09053895494720585,0.23452861823673804,0.030543261909900768
2025-03-26 18:04:37.649671,0.03,-0.23,0.9400000000000001,0.7134033317526822,2.781618495365963,-0.4625122517784973
2025-03-26 18:04:37.709426,-0.22,-0.23,0.23,0.2279836335417593,0.8268497331323136,0.09926560120717749
2025-03-26 18:04:37.769938,-0.16,-0.28,0.0,0.12762720155208535,0.34143003492139073,-0.25416357232167425
2025-03-26 18:04:37.830177,0.3,0.59,0.2,0.10799224746714914,-0.17998707911191522,-0.4363323129985824
2025-03-26 18:04:37.890321,0.07,-0.03,0.12,0.42978732830360367,0.5443245604657315,0.1712604328519436
2025-03-26 18:04:37.949295,-0.58,-0.07,0.23,0.019634954084936207,-0.48323803664593,-0.15926129424448257
2025-03-26 18:04:38.008983,-0.04,-0.08,0.38,0.0719948316447661,-0.04145156973486533,-0.037088246604879506
2025-03-26 18:04:38.069868,-0.08,-0.03,0.17,0.09381144729469522,0.35997415822383044,-0.044724062082354694
2025-03-26 18:04:38.130294,0.0,-0.03,0.17,0.09053895494720585,0.050178215994836975,0.01090830782496456
2025-03-26 18:04:38.190921,-0.03,0.0,0.18,-0.08072147790473774,-0.11453723216212788,-0.016362461737446838
2025-03-26 18:04:38.250547,0.01,-0.14,0.26,-0.009817477042468103,0.004363323129985824,-0.001090830782496456
2025-03-26 18:04:38.310346,0.07,-0.05,0.15,0.00545415391248228,0.04254240051736178,-0.004363323129985824
2025-03-26 18:04:38.370020,0.0,-0.07,0.29,0.044724062082354694,0.08835729338221293,0.020725784867432664
2025-03-26 18:04:38.430394,0.17,0.0,0.14,-0.003272492347489368,0.030543261909900768,0.02399827721492203
2025-03-26 18:04:38.490975,0.24,0.06,0.15,-0.09926560120717749,-0.2825251726665821,-0.05126904677733343
2025-03-26 18:04:38.550158,-0.16,-0.02,0.26,0.015271630954950384,-0.10581058590215622,0.0272707695624114
2025-03-26 18:04:38.609775,0.0,-0.07,0.28,-0.03599741582238305,-0.11999138607461016,0.01090830782496456
2025-03-26 18:04:38.668641,-0.13,-0.03,0.19,-0.019634954084936207,-0.04363323129985824,-0.015271630954950384
2025-03-26 18:04:38.728770,-0.06,-0.02,0.13,-0.06763150851478027,-0.2476185876266955,-0.017453292519943295
2025-03-26 18:04:38.788984,0.03,-0.03,0.17,0.009817477042468103,0.06872233929727672,0.04799655442984406
2025-03-26 18:04:38.849038,0.01,0.0,0.08,-0.026179938779914945,-0.044724062082354694,0.05235987755982989
2025-03-26 18:04:38.907549,-0.06,-0.08,0.23,0.10144726277217041,0.2748893571891069,-0.011999138607461015
2025-03-26 18:04:38.967170,0.09,-0.02,0.09,0.06872233929727672,0.17016960206944712,-0.03490658503988659
2025-03-26 18:04:39.027568,-0.05,-0.07,0.21,0.08726646259971647,0.16035212502697901,-0.01090830782496456
2025-03-26 18:04:39.087906,-0.05,-0.06,0.17,-0.001090830782496456,0.03381575425739013,0.011999138607461015
2025-03-26 18:04:39.148431,-0.13,-0.06,0.17,0.01090830782496456,0.032724923474893676,-0.003272492347489368
2025-03-26 18:04:39.207089,-0.03,-0.05,0.16,-0.0272707695624114,0.001090830782496456,-0.020725784867432664
2025-03-26 18:04:39.266969,-0.03,-0.08,0.16,-0.011999138607461015,-0.0272707695624114,-0.004363323129985824
2025-03-26 18:04:39.328000,0.01,-0.09,0.18,0.001090830782496456,0.003272492347489368,-0.050178215994836975
2025-03-26 18:04:39.388544,0.13,-0.07,0.13,-0.003272492347489368,-0.013089969389957472,-0.04908738521234052
2025-03-26 18:04:39.449616,0.0,-0.07,0.16,-0.002181661564992912,-0.006544984694978736,0.008726646259971648
2025-03-26 18:04:39.508312,-0.04,-0.07,0.13,-0.028361600344907856,-0.016362461737446838,0.002181661564992912
2025-03-26 18:04:39.570668,0.0,-0.07,0.17,0.001090830782496456,0.022907446432425576,-0.00545415391248228
2025-03-26 18:04:39.631559,-0.09,-0.06,0.19,0.018544123302439753,0.04254240051736178,0.0
2025-03-26 18:04:39.692141,-0.01,-0.09,0.18,-0.013089969389957472,-0.030543261909900768,-0.01090830782496456
2025-03-26 18:04:39.753274,0.15,-0.05,0.15,0.009817477042468103,0.017453292519943295,0.009817477042468103
2025-03-26 18:04:39.813627,-0.03,-0.07,0.19,-0.02399827721492203,-0.04145156973486533,-0.00545415391248228
2025-03-26 18:04:39.873723,-0.03,-0.1,0.16,-0.004363323129985824,-0.006544984694978736,0.0
2025-03-26 18:04:39.934082,0.01,-0.06,0.16,0.01090830782496456,0.026179938779914945,-0.001090830782496456
2025-03-26 18:04:39.994570,-0.04,-0.07,0.18,-0.001090830782496456,0.004363323129985824,0.0
2025-03-26 18:04:40.055873,-0.01,-0.09,0.14,0.001090830782496456,0.008726646259971648,-0.008726646259971648
2025-03-26 18:04:40.116042,-0.04,-0.04,0.22,-0.002181661564992912,0.011999138607461015,-0.007635815477475192
2025-03-26 18:04:40.176510,-0.1,-0.1,0.2,-0.003272492347489368,-0.020725784867432664,-0.002181661564992912
2025-03-26 18:04:40.236722,-0.08,-0.09,0.14,-0.017453292519943295,-0.028361600344907856,-0.018544123302439753
2025-03-26 18:04:40.296969,0.0,-0.08,0.18,0.025089107997418487,0.009817477042468103,-0.007635815477475192
2025-03-26 18:04:40.358198,0.01,-0.1,0.15,0.013089969389957472,-0.011999138607461015,0.003272492347489368
2025-03-26 18:04:40.418025,0.13,-0.06,0.2,0.032724923474893676,0.009817477042468103,0.014180800172453928
2025-03-26 18:04:40.476761,0.03,-0.16,0.14,0.02181661564992912,-0.019634954084936207,0.004363323129985824
2025-03-26 18:04:40.536614,0.07,-0.18,0.21,0.10362892433716332,0.10253809355466686,0.044724062082354694
2025-03-26 18:04:40.597422,0.01,-0.16,0.23,-0.011999138607461015,-0.014180800172453928,0.03490658503988659
2025-03-26 18:04:40.658921,-0.09,-0.11,0.22,-0.001090830782496456,0.02945243112740431,0.07635815477475191
2025-03-26 18:04:40.718771,-0.15,-0.11,0.16,-0.08944812416470939,-0.026179938779914945,0.037088246604879506
2025-03-26 18:04:40.777531,-0.11,-0.03,0.11,-0.03599741582238305,0.022907446432425576,0.05235987755982989
2025-03-26 18:04:40.838042,-0.1,0.07,0.17,-0.04581489286485115,0.013089969389957472,0.04036073895236887
2025-03-26 18:04:40.898454,0.06,0.12,0.12,-0.09926560120717749,-0.003272492347489368,0.02181661564992912
2025-03-26 18:04:40.959750,0.02,-0.05,0.21,0.018544123302439753,0.09053895494720585,0.013089969389957472
2025-03-26 18:04:41.019390,0.06,-0.14,0.15,-0.07308566242726255,0.039269908169872414,-0.04145156973486533
2025-03-26 18:04:41.078047,-0.02,-0.19,0.38,0.032724923474893676,0.10799224746714914,-0.15817046346198613
2025-03-26 18:04:41.137027,-0.01,-0.09,0.6,-0.050178215994836975,0.13853550937704992,-0.05890486225480862
2025-03-26 18:04:41.197926,-0.05,0.06,0.12,-0.136353847812057,0.09053895494720585,-0.03490658503988659
2025-03-26 18:04:41.259305,0.22,0.2,-0.44,-0.13744467859455345,-0.04581489286485115,0.03490658503988659
2025-03-26 18:04:41.318919,-0.79,0.11,0.23,0.07526732399225546,-0.07526732399225546,0.09272061651219876
2025-03-26 18:04:41.377780,-0.75,0.21,-0.03,0.18216874067690814,0.11453723216212788,-0.05235987755982989
2025-03-26 18:04:41.437516,1.1,0.41000000000000003,-0.5,0.04254240051736178,-0.09599310885968812,-0.358883327441334
2025-03-26 18:04:41.497972,-0.47000000000000003,-0.5,0.51,0.06654067773228381,-0.08290313946973066,-0.23125612588924865
2025-03-26 18:04:41.559793,0.91,-0.06,0.6900000000000001,-0.07744898555724837,-0.2181661564992912,-0.061086523819801536
2025-03-26 18:04:41.620202,0.92,-0.22,0.1,0.07635815477475191,-0.026179938779914945,-0.1930770485018727
2025-03-26 18:04:41.679857,0.65,-0.08,0.39,0.10253809355466686,0.055632369907319255,0.05345070834232634
2025-03-26 18:04:41.738664,0.67,-0.31,0.53,0.018544123302439753,-0.02945243112740431,0.136353847812057
2025-03-26 18:04:41.799659,-0.26,-0.13,-0.04,-0.001090830782496456,0.09708393964218458,0.27052603405912107
2025-03-26 18:04:41.861244,-0.62,-0.24,-0.03,0.001090830782496456,0.044724062082354694,0.08617563181722002
2025-03-26 18:04:41.921621,-1.07,0.05,-0.16,0.008726646259971648,-0.5923211148955756,-1.124646536753846
2025-03-26 18:04:41.980329,-0.22,-0.43,0.41000000000000003,0.11126473981463851,0.12762720155208535,-0.17998707911191522
2025-03-26 18:04:42.038961,-0.61,0.36,0.31,-0.1439896632895322,-0.5443245604657315,-1.0962849364089382
2025-03-26 18:04:42.099282,-0.35000000000000003,1.23,-0.91,-0.050178215994836975,0.09490227807719166,-0.5705044992456465
2025-03-26 18:04:42.160502,-0.32,0.07,0.01,0.07090400086226964,0.02181661564992912,0.13962634015954636
2025-03-26 18:04:42.221602,0.61,0.39,-0.4,0.016362461737446838,1.3962634015954636,0.16144295580947549
2025-03-26 18:04:42.280388,-0.09,-0.24,0.56,0.8486663487822428,1.8467765147664998,0.43960480534607177
2025-03-26 18:04:42.339136,0.0,1.75,-2.54,-1.4115350325504141,-0.24434609527920614,0.37742745074377376
2025-03-26 18:04:42.399779,-0.43,-0.08,0.55,-0.24216443371421323,-0.18871372537188688,0.10035643198967395
2025-03-26 18:04:42.460800,0.01,0.19,0.25,-0.15707963267948966,-0.5159629601208237,0.1341721862470641
2025-03-26 18:04:42.522319,1.42,0.31,0.0,-0.10690141668465268,-0.4788747135159442,0.1461713248545251
2025-03-26 18:04:42.581012,0.15,0.0,0.18,-0.020725784867432664,-1.0112001353742146,-0.026179938779914945
2025-03-26 18:04:42.639725,1.56,1.69,0.16,0.3948807432637171,-1.6558811278296202,-0.17671458676442586
2025-03-26 18:04:42.700351,0.28,-0.12,0.0,-0.04254240051736178,0.1908953869368798,0.037088246604879506
2025-03-26 18:04:42.761524,-0.16,0.35000000000000003,0.42,-0.09599310885968812,-0.21380283336930536,-1.2173671532660448
2025-03-26 18:04:42.823142,0.01,0.39,0.38,-0.09926560120717749,-0.46142142099600086,-0.36979163526629855
2025-03-26 18:04:42.881772,0.79,-0.39,0.72,-0.1308996938995747,-0.04908738521234052,-0.39706240482870997
2025-03-26 18:04:42.940356,0.24,0.3,0.43,0.028361600344907856,-0.25089107997418486,0.031634092692397225
2025-03-26 18:04:42.999192,0.43,0.09,0.6900000000000001,0.10581058590215622,0.7090400086226963,0.358883327441334
2025-03-26 18:04:43.060615,-0.32,-0.08,0.72,0.09381144729469522,0.830122225479803,0.14289883250703572
2025-03-26 18:04:43.122252,-0.88,-0.07,0.54,0.01090830782496456,0.6348635154129374,0.001090830782496456
2025-03-26 18:04:43.180770,-0.13,0.38,0.46,-0.03381575425739013,0.17235126363444003,-0.3719732968312915
2025-03-26 18:04:43.239409,-0.13,-0.04,0.53,-0.08835729338221293,-0.09708393964218458,-0.2945243112740431
2025-03-26 18:04:43.298358,-0.25,-0.24,0.64,0.09272061651219876,0.24870941840919197,-0.21598449493429828
2025-03-26 18:04:43.360161,1.3,0.24,0.55,0.09490227807719166,0.07308566242726255,-0.272707695624114
2025-03-26 18:04:43.421688,-1.54,0.43,0.32,-0.037088246604879506,0.24870941840919197,0.2585268954516601
2025-03-26 18:04:43.481122,-0.92,-0.58,0.42,-0.1734420944169365,-0.29561514205653955,0.11017390903214205
2025-03-26 18:04:43.539759,-0.27,0.46,0.25,-0.0818123086872342,-0.11017390903214205,-0.018544123302439753
2025-03-26 18:04:43.598491,0.5700000000000001,0.71,1.44,-0.10690141668465268,0.04581489286485115,0.38288160465625604
2025-03-26 18:04:43.659471,-0.9400000000000001,0.16,0.98,0.06872233929727672,-0.6479534848028948,-0.3196134192714616
2025-03-26 18:04:43.721147,1.3,-0.13,0.29,0.5323254218582705,0.4537856055185257,-1.4551682638502723
2025-03-26 18:04:43.782376,-0.43,2.21,1.59,1.0570150282390658,0.7635815477475192,-1.4464416175903005
2025-03-26 18:04:43.841096,0.14,0.64,-0.38,-0.14289883250703572,-0.385063266221249,-0.0916297857297023
2025-03-26 18:04:43.899833,-0.5700000000000001,0.12,0.26,-0.009817477042468103,-0.2977968036215325,0.11235557059713497
2025-03-26 18:04:43.960271,-0.28,0.09,0.15,0.09053895494720585,0.10253809355466686,0.05999569303730508
2025-03-26 18:04:44.021467,-0.08,0.0,0.16,-0.002181661564992912,0.06544984694978735,0.06981317007977318
2025-03-26 18:04:44.082423,-0.14,0.17,0.11,-0.04908738521234052,-0.10690141668465268,-0.025089107997418487
2025-03-26 18:04:44.141108,0.13,-0.18,0.2,-0.10253809355466686,0.09817477042468103,0.030543261909900768
2025-03-26 18:04:44.199836,-0.26,0.01,0.16,0.017453292519943295,0.11780972450961724,0.1090830782496456
2025-03-26 18:04:44.260597,-0.48,-0.06,0.27,0.001090830782496456,0.19744037163185854,0.10362892433716332
2025-03-26 18:04:44.321711,-0.19,0.1,0.23,0.001090830782496456,0.13853550937704992,-0.007635815477475192
2025-03-26 18:04:44.382354,-0.03,0.08,0.19,0.017453292519943295,-0.02399827721492203,-0.014180800172453928
2025-03-26 18:04:44.440976,-0.14,0.15,0.07,-0.002181661564992912,-0.050178215994836975,0.04690572364734761
2025-03-26 18:04:44.499544,-0.3,0.31,0.21,0.025089107997418487,0.0,0.12435470920459599
2025-03-26 18:04:44.559272,-0.1,0.1,0.07,0.013089969389957472,0.016362461737446838,-0.038179077387375956
2025-03-26 18:04:44.620727,0.0,0.02,0.18,-0.02181661564992912,0.044724062082354694,-0.04690572364734761
2025-03-26 18:04:44.681134,0.0,-0.02,0.08,-0.038179077387375956,0.0916297857297023,-0.04690572364734761
2025-03-26 18:04:44.740529,-0.04,-0.1,0.17,-0.026179938779914945,0.0272707695624114,0.016362461737446838
2025-03-26 18:04:44.799313,-0.06,-0.06,0.12,0.0,0.06981317007977318,-0.022907446432425576
2025-03-26 18:04:44.858986,-0.09,0.1,0.19,0.02945243112740431,-0.028361600344907856,0.038179077387375956
2025-03-26 18:04:44.919956,-0.25,0.18,0.12,0.03490658503988659,-0.002181661564992912,0.04690572364734761
2025-03-26 18:04:44.980070,-0.22,0.23,0.12,-0.003272492347489368,-0.0719948316447661,0.025089107997418487
2025-03-26 18:04:45.040312,-0.03,0.13,0.12,-0.026179938779914945,0.01090830782496456,-0.06872233929727672
2025-03-26 18:04:45.098917,0.16,0.03,0.17,-0.009817477042468103,0.026179938779914945,-0.08399397025222712
2025-03-26 18:04:45.158713,0.08,0.0,-0.03,-0.1189005552921137,-0.12980886311707826,-0.01090830782496456
2025-03-26 18:04:45.219477,-0.15,-0.07,0.04,-0.09926560120717749,-0.22252947962927702,-0.0272707695624114
2025-03-26 18:04:45.279889,-0.06,-0.07,0.09,-0.06654067773228381,0.032724923474893676,0.032724923474893676
2025-03-26 18:04:45.340587,-0.28,0.08,0.2,0.02945243112740431,-0.007635815477475192,0.037088246604879506
2025-03-26 18:04:45.399235,-0.14,0.0,0.15,-0.009817477042468103,0.018544123302439753,0.05672320068981571
2025-03-26 18:04:45.459109,0.11,-0.1,0.29,-0.022907446432425576,0.006544984694978736,-0.04363323129985824
2025-03-26 18:04:45.520360,-0.19,-0.29,0.09,-0.07526732399225546,0.08835729338221293,-0.07635815477475191
2025-03-26 18:04:45.580992,-0.3,0.0,0.41000000000000003,-0.07526732399225546,-0.6185010536754906,-0.16798794050445423
2025-03-26 18:04:45.641578,-0.03,-0.07,0.33,-0.03490658503988659,-0.050178215994836975,0.001090830782496456
2025-03-26 18:04:45.700241,-0.38,-0.24,0.26,-0.018544123302439753,0.10471975511965978,-0.006544984694978736
2025-03-26 18:04:45.759743,-3.25,-0.9400000000000001,0.85,0.5105088062083414,0.8268497331323136,0.1734420944169365
2025-03-26 18:04:45.821475,0.33,0.04,0.36,-0.05235987755982989,-0.21380283336930536,0.07090400086226964
2025-03-26 18:04:45.882566,0.71,0.97,-0.34,-0.3752457891787809,0.9075712110370514,0.17780541754692233
2025-03-26 18:04:45.943196,-0.91,-0.07,0.3,0.0719948316447661,-0.9708393964218458,-0.5835944686356039
2025-03-26 18:04:46.001707,0.0,-0.21,0.3,0.2454369260617026,0.5519603759432067,0.12326387842209953
2025-03-26 18:04:46.060295,0.12,0.34,0.14,0.4014257279586958,1.2762720155208536,0.56941366846315
2025-03-26 18:04:46.119903,-0.05,1.08,0.9400000000000001,2.0540343634408265,1.102829921103917,-0.928296995904484
2025-03-26 18:04:46.181450,0.19,1.4000000000000001,-0.64,0.48323803664593,0.8246680715673207,0.4603305902135044
2025-03-26 18:04:46.243186,-0.66,-1.1400000000000001,-0.09,-0.33161255787892263,-1.1846422297911512,-0.5530512067257032
2025-03-26 18:04:46.301729,0.4,-0.12,0.68,-0.3861540970037454,-0.18762289458939044,0.17671458676442586
2025-03-26 18:04:46.360424,-0.2,0.0,0.42,-0.19634954084936207,-0.015271630954950384,-0.07963064712224129
2025-03-26 18:04:46.419145,-0.45,0.11,0.03,-0.23889194136672387,-0.030543261909900768,0.04036073895236887
2025-03-26 18:04:46.479499,-0.07,0.09,0.04,-0.32179508083645453,0.05890486225480862,0.0272707695624114
2025-03-26 18:04:46.540956,-0.13,-0.25,0.5,-0.1559888018969932,-0.025089107997418487,-0.031634092692397225
2025-03-26 18:04:46.601159,-0.92,0.04,0.5,0.26616271092913524,-0.56941366846315,-0.12762720155208535
2025-03-26 18:04:46.659768,0.5,-0.16,-0.4,0.36979163526629855,-0.3239767424014474,-0.2716168648416175
2025-03-26 18:04:46.718570,0.0,0.07,0.17,0.06544984694978735,0.12980886311707826,-0.08944812416470939
2025-03-26 18:04:46.780004,0.59,0.65,-0.18,-0.07417649320975901,0.10035643198967395,0.04581489286485115
2025-03-26 18:04:46.841336,-0.02,0.03,0.02,-0.020725784867432664,0.43196898986859655,0.030543261909900768
2025-03-26 18:04:46.902026,-0.27,0.23,0.13,-0.06763150851478027,0.5399612373357457,0.14508049407202864
2025-03-26 18:04:46.960584,0.62,1.2,1.11,-0.29561514205653955,-0.6806784082777885,0.13744467859455345
2025-03-26 18:04:47.019338,-0.1,0.23,-0.07,0.16798794050445423,-0.45814892864851153,-0.11344640137963143
2025-03-26 18:04:47.080820,-0.7000000000000001,0.0,0.36,-0.04690572364734761,0.13744467859455345,-0.05235987755982989
2025-03-26 18:04:47.142406,-0.47000000000000003,0.59,0.37,0.7657632093125121,-3.0063296365602326,-0.43524148221608594
2025-03-26 18:04:47.203459,0.02,0.28,0.5,0.49414634447089456,-0.9250245035569946,0.06544984694978735
2025-03-26 18:04:47.262244,-0.26,-0.27,-0.13,0.06981317007977318,0.5770494839406252,0.07963064712224129
2025-03-26 18:04:47.320969,-1.11,0.02,0.48,-0.37306412761378793,1.1104657365813921,-0.01090830782496456
2025-03-26 18:04:47.382069,-0.09,0.15,0.1,0.19744037163185854,0.32506757318394386,0.05672320068981571
2025-03-26 18:04:47.443219,-1.6400000000000001,-0.91,-0.01,-0.12217304763960307,0.04799655442984406,-0.044724062082354694
2025-03-26 18:04:47.504146,1.67,1.6500000000000001,1.1300000000000001,-0.19198621771937624,0.6032294227205401,0.01090830782496456
2025-03-26 18:04:47.562863,-0.14,0.11,-0.39,-0.17889624832941878,0.2977968036215325,-0.031634092692397225
2025-03-26 18:04:47.621505,-0.36,0.29,-0.04,-0.17453292519943295,0.5770494839406252,-0.05999569303730508
2025-03-26 18:04:47.682989,-0.2,-0.47000000000000003,-0.63,-0.016362461737446838,0.878118779909647,-0.3076142806640006
2025-03-26 18:04:47.744466,0.13,0.18,-0.28,-0.030543261909900768,0.779944009484966,-0.06763150851478027
2025-03-26 18:04:47.805383,0.27,0.09,-0.47000000000000003,0.04145156973486533,-0.3425208657038872,0.04908738521234052
2025-03-26 18:04:47.863899,-0.06,0.44,0.38,0.05781403147231216,-0.7897614865274342,0.032724923474893676
2025-03-26 18:04:47.922480,-0.28,0.03,0.42,-0.210530341021816,-0.21271200258680892,-0.12217304763960307
2025-03-26 18:04:47.982690,0.07,0.56,-0.16,-0.08508480103472356,-0.3370667117914049,-0.003272492347489368
2025-03-26 18:04:48.045468,-0.79,0.17,0.0,-0.10690141668465268,-0.32070425005395803,-0.028361600344907856
2025-03-26 18:04:48.106067,-1.76,0.09,0.16,-0.05999569303730508,-0.08944812416470939,-0.12980886311707826
2025-03-26 18:04:48.164580,0.38,0.24,-0.2,0.04581489286485115,0.04254240051736178,0.015271630954950384
2025-03-26 18:04:48.223248,0.3,0.24,-0.26,-0.11562806294462433,0.36760997370130566,0.06326818538479445
2025-03-26 18:04:48.281995,-1.84,0.0,0.62,-0.11562806294462433,0.33161255787892263,0.01090830782496456
2025-03-26 18:04:48.342853,1.1500000000000001,-0.15,0.15,0.08290313946973066,-0.15271630954950383,0.15162547876700738
2025-03-26 18:04:48.404404,-0.46,0.03,0.07,-0.13308135546456762,0.26725354171163174,0.21489366415180183
2025-03-26 18:04:48.465383,-0.77,-0.21,0.09,0.003272492347489368,0.1265363707695889,0.07744898555724837
2025-03-26 18:04:48.524147,-0.22,-0.25,0.0,0.09817477042468103,-0.09817477042468103,-0.02181661564992912
2025-03-26 18:04:48.582984,0.23,0.31,-0.09,0.13308135546456762,-0.08726646259971647,0.030543261909900768
2025-03-26 18:04:48.643301,-0.63,0.34,-0.01,0.15707963267948966,0.002181661564992912,0.014180800172453928
2025-03-26 18:04:48.704671,-0.74,0.34,0.07,0.1712604328519436,0.04036073895236887,-0.04254240051736178
2025-03-26 18:04:48.766042,-0.53,0.23,0.12,0.16144295580947549,-0.011999138607461015,-0.11780972450961724
2025-03-26 18:04:48.824895,-0.25,0.27,-0.11,0.2083486794568231,-0.272707695624114,-0.21489366415180183
2025-03-26 18:04:48.883580,-0.6,-0.06,0.34,0.17998707911191522,-0.3294308963139297,-0.25416357232167425
2025-03-26 18:04:48.944301,0.4,-0.08,-0.07,0.1090830782496456,-0.09490227807719166,-0.2203478180642841
2025-03-26 18:04:49.005511,0.58,0.36,0.17,0.031634092692397225,-0.07090400086226964,-0.21707532571679475
2025-03-26 18:04:49.067111,1.22,0.72,0.3,-0.002181661564992912,0.02181661564992912,-0.1308996938995747
2025-03-26 18:04:49.125942,0.21,-0.01,0.13,0.03490658503988659,-0.18435040224190105,-0.12762720155208535
2025-03-26 18:04:49.184762,0.41000000000000003,0.14,-0.03,0.018544123302439753,-0.07308566242726255,-0.1308996938995747
2025-03-26 18:04:49.245262,0.19,0.22,-0.07,0.10362892433716332,-0.05345070834232634,-0.2203478180642841
2025-03-26 18:04:49.305840,-0.8,-0.17,-0.23,0.3196134192714616,0.10253809355466686,-0.210530341021816
2025-03-26 18:04:49.366648,-0.17,-0.28,-0.09,0.2901609881440573,0.5246896063807953,-0.22689280275926285
2025-03-26 18:04:49.426310,-0.27,-0.43,0.26,0.2683443724941282,0.6512259771503842,-0.11780972450961724
2025-03-26 18:04:49.486044,-0.52,-0.59,0.23,0.04145156973486533,0.7744898555724837,-0.1439896632895322
2025-03-26 18:04:49.546654,0.18,0.48,0.48,0.01090830782496456,0.3523383427463553,-0.3043417883165112
2025-03-26 18:04:49.607303,0.72,0.76,0.28,-0.004363323129985824,0.20943951023931956,-0.24980024919168842
2025-03-26 18:04:49.668221,0.05,-0.79,0.14,-0.030543261909900768,0.4526947747360292,-0.04145156973486533
2025-03-26 18:04:49.728126,-0.54,-0.36,-0.47000000000000003,-0.2650718801466388,1.2642728769133924,0.07090400086226964
2025-03-26 18:04:49.788087,0.45,1.52,0.77,0.1407171709420428,0.45487643630102215,-0.28579766501407144
2025-03-26 18:04:49.848639,-0.24,1.05,0.81,0.3687008044838021,-0.3097959422289935,-0.1461713248545251
2025-03-26 18:04:49.909308,0.19,0.28,0.44,0.05345070834232634,0.008726646259971648,-0.07526732399225546
2025-03-26 18:04:49.969980,1.87,0.88,0.13,0.11126473981463851,-0.46142142099600086,0.009817477042468103
2025-03-26 18:04:50.029699,1.58,1.24,0.77,0.06654067773228381,-0.2792526803190927,0.35561083509384467
2025-03-26 18:04:50.090598,0.63,0.5700000000000001,-0.47000000000000003,0.00545415391248228,-0.3621558197888234,0.65558930028037
2025-03-26 18:04:50.151214,0.05,0.22,0.48,0.08508480103472356,-0.3327033886614191,0.7395832705325971
2025-03-26 18:04:50.212065,-1.43,-0.02,0.13,0.028361600344907856,-0.35124751196385884,0.6621342849753488
2025-03-26 18:04:50.273778,-1.62,-0.42,0.59,-0.26725354171163174,0.10253809355466686,0.34797501961636945
2025-03-26 18:04:50.332489,-0.49,0.12,0.13,-0.21162117180431245,-0.2203478180642841,0.09053895494720585
2025-03-26 18:04:50.391179,-0.28,0.04,0.33,-0.21598449493429828,-0.4908738521234052,0.04581489286485115
2025-03-26 18:04:50.451427,0.86,0.34,-0.07,-0.27598018797160334,-0.5159629601208237,0.11780972450961724
2025-03-26 18:04:50.511908,-0.53,-0.19,-0.14,-0.34033920413889424,-0.3392483733563978,0.24652775684419906
2025-03-26 18:04:50.573851,-0.92,-0.1,0.03,-0.2792526803190927,-0.7744898555724837,0.17671458676442586
2025-03-26 18:04:50.632435,-0.35000000000000003,0.39,0.0,-0.08726646259971647,-0.3861540970037454,0.08508480103472356
2025-03-26 18:04:50.691038,-0.24,0.22,0.1,-0.01090830782496456,-0.14289883250703572,0.07526732399225546
2025-03-26 18:04:50.750613,0.04,1.06,-0.09,0.2617993877991494,-0.3119776037939864,-0.04581489286485115
2025-03-26 18:04:50.811539,-0.17,0.33,0.4,0.0,-0.02945243112740431,0.05999569303730508
2025-03-26 18:04:50.871769,0.29,-0.92,-0.5,0.06763150851478027,-0.11235557059713497,0.008726646259971648
2025-03-26 18:04:50.932084,0.0,-0.09,0.41000000000000003,-0.032724923474893676,1.53588974175501,0.22143864884678055
2025-03-26 18:04:50.991916,0.49,0.46,-0.32,-0.11562806294462433,0.20180369476184434,0.18544123302439752
2025-03-26 18:04:51.051048,-0.05,-0.13,0.25,-0.1636246173744684,0.2519819107566813,0.19853120241435498
2025-03-26 18:04:51.112009,0.0,-0.15,0.18,-0.16144295580947549,0.15489797111449674,0.1265363707695889
2025-03-26 18:04:51.172348,0.35000000000000003,0.06,-0.22,-0.09272061651219876,0.011999138607461015,0.12762720155208535
2025-03-26 18:04:51.233391,-0.07,0.13,0.5,-0.11453723216212788,0.2650718801466388,0.1308996938995747
2025-03-26 18:04:51.293017,-0.78,0.0,-0.34,0.06544984694978735,0.02181661564992912,0.016362461737446838
2025-03-26 18:04:51.351622,0.0,0.16,0.1,0.04799655442984406,0.1505346479845109,-0.08726646259971647
2025-03-26 18:04:51.411952,0.6900000000000001,0.92,0.21,0.10253809355466686,-0.07635815477475191,-0.03490658503988659
2025-03-26 18:04:51.472411,0.58,0.61,0.2,-0.09272061651219876,0.11999138607461016,-0.008726646259971648
2025-03-26 18:04:51.533711,0.33,0.32,-0.54,0.11235557059713497,0.04363323129985824,0.044724062082354694
2025-03-26 18:04:51.593453,-0.05,-0.52,0.12,0.21380283336930536,0.017453292519943295,0.08399397025222712
2025-03-26 18:04:51.652274,0.25,0.65,0.26,0.05345070834232634,0.20180369476184434,0.002181661564992912
2025-03-26 18:04:51.712944,0.04,0.5,0.14,0.004363323129985824,0.11562806294462433,0.09381144729469522
2025-03-26 18:04:51.773306,-0.3,0.62,0.32,-0.08399397025222712,0.05672320068981571,0.03599741582238305
2025-03-26 18:04:51.834499,-0.71,-0.24,-0.09,-0.032724923474893676,-0.13199052468207118,-0.09599310885968812
2025-03-26 18:04:51.894374,0.38,0.42,0.01,-0.031634092692397225,-0.01090830782496456,-0.11671889372712078
2025-03-26 18:04:51.953438,0.34,0.48,0.24,-0.002181661564992912,-0.038179077387375956,-0.003272492347489368
2025-03-26 18:04:52.014357,-0.07,-0.12,0.01,-0.00545415391248228,0.028361600344907856,-0.02945243112740431
2025-03-26 18:04:52.074359,-0.39,-0.1,0.1,0.019634954084936207,0.04908738521234052,-0.037088246604879506
2025-03-26 18:04:52.135931,0.0,-0.06,0.43,0.01090830782496456,0.022907446432425576,0.007635815477475192
2025-03-26 18:04:52.195701,0.26,0.24,0.22,-0.04036073895236887,0.09053895494720585,0.016362461737446838
2025-03-26 18:04:52.255398,-0.64,0.33,0.2,-0.06217735460229799,-0.09817477042468103,0.038179077387375956
2025-03-26 18:04:52.315889,-1.46,0.25,-0.02,-0.0545415391248228,-0.18871372537188688,-0.18435040224190105
2025-03-26 18:04:52.376344,-0.58,0.21,-0.43,0.0,-0.19198621771937624,-0.433059820651093
2025-03-26 18:04:52.437677,0.2,0.06,0.09,0.12217304763960307,-0.22907446432425577,-0.45487643630102215
2025-03-26 18:04:52.497454,0.01,-0.44,-0.39,0.12871803233458182,-0.11126473981463851,-0.48323803664593
2025-03-26 18:04:52.556181,0.91,-0.09,0.16,0.23671027980173096,-0.06763150851478027,-0.5126904677733343
2025-03-26 18:04:52.616659,1.52,0.63,0.46,0.03599741582238305,0.23671027980173096,-0.32506757318394386
2025-03-26 18:04:52.677103,1.76,0.64,0.16,0.030543261909900768,0.011999138607461015,-35.6723482491991
2025-03-26 18:04:52.738449,1.07,0.6,0.12,-0.020725784867432664,-0.04581489286485115,0.3817907738737596
2025-03-26 18:04:52.798268,-0.55,0.16,0.2,-0.025089107997418487,0.10144726277217041,0.5214171140333059
2025-03-26 18:04:52.856991,-2.27,-0.88,-0.11,-0.018544123302439753,0.31634092692397225,0.3196134192714616
2025-03-26 18:04:52.917246,-1.99,-0.14,-0.12,0.1461713248545251,0.025089107997418487,-0.17016960206944712
2025-03-26 18:04:52.977401,-0.98,0.33,0.09,0.23343778745424157,-0.13962634015954636,-0.5115996369908379
2025-03-26 18:04:53.038569,1.01,0.39,0.29,0.13526301702956053,-0.09708393964218458,-0.4701480672559725
2025-03-26 18:04:53.098458,-1.06,-0.5700000000000001,0.0,-0.019634954084936207,0.3021601267515183,-0.16035212502697901
2025-03-26 18:04:53.157292,-1.35,-0.47000000000000003,-0.51,0.2083486794568231,-0.1461713248545251,-0.28361600344907856
2025-03-26 18:04:53.217016,-1.12,-0.31,0.53,0.37960911230876665,-0.41015237421866746,-0.5246896063807953
2025-03-26 18:04:53.277555,-0.72,-0.01,0.54,-0.028361600344907856,-0.19634954084936207,-0.5585053606381855
2025-03-26 18:04:53.338938,0.05,-0.09,-0.04,-0.24870941840919197,-0.06654067773228381,-0.6152285613280012
2025-03-26 18:04:53.399242,1.99,0.73,-0.22,-0.24980024919168842,0.20943951023931956,-0.4068798818711781
2025-03-26 18:04:53.457997,1.34,0.16,0.22,-0.22252947962927702,0.7821256710499589,-0.07853981633974483
2025-03-26 18:04:53.516687,1.3800000000000001,-0.07,-0.16,-0.22471114119426994,1.2282754610910094,0.08944812416470939
2025-03-26 18:04:53.576946,0.7000000000000001,-0.7000000000000001,-0.18,-0.061086523819801536,1.4038992170729387,0.13308135546456762
2025-03-26 18:04:53.638095,0.44,0.77,0.53,-0.07308566242726255,1.1671889372712079,0.19744037163185854
2025-03-26 18:04:53.699319,-0.62,0.29,1.6,-0.12980886311707826,1.0581058590215622,0.25089107997418486
2025-03-26 18:04:53.758216,-1.96,-0.18,1.93,-0.11344640137963143,0.6468626540203984,-0.13308135546456762
2025-03-26 18:04:53.817026,-0.96,1.0,0.8,-0.3327033886614191,0.8192139176548384,-0.1712604328519436
2025-03-26 18:04:53.877406,-1.36,-0.65,-0.9400000000000001,0.04690572364734761,0.5552328682906961,-0.22252947962927702
2025-03-26 18:04:53.938712,0.2,-0.43,-1.27,0.09053895494720585,0.5279620987282847,-0.5737769915931359
2025-03-26 18:04:54.000417,1.85,1.68,-0.37,0.27598018797160334,0.6305001922829515,-0.3436116964863836
2025-03-26 18:04:54.059031,1.19,2.36,0.41000000000000003,0.31634092692397225,0.07417649320975901,0.25634523388666713
2025-03-26 18:04:54.117698,-0.49,-0.2,1.08,0.6359543461954338,-0.4625122517784973,0.4799655442984406
2025-03-26 18:04:54.178245,-1.29,-0.67,1.72,0.5203262832508095,-0.5203262832508095,0.2628902185816459
2025-03-26 18:04:54.239646,0.5,0.6900000000000001,-0.26,0.07308566242726255,-0.6468626540203984,-0.07635815477475191
2025-03-26 18:04:54.301028,0.19,0.56,-1.08,-0.020725784867432664,-0.03490658503988659,0.27379852640661045
2025-03-26 18:04:54.360598,-0.2,-0.46,-0.38,0.019634954084936207,-0.04036073895236887,0.36324665057131983
2025-03-26 18:04:54.419329,-0.88,-0.64,0.68,-0.12544553998709243,0.24325526449670967,0.27379852640661045
2025-03-26 18:04:54.479861,0.14,-0.09,0.2,0.07526732399225546,-0.3883357585687383,0.17780541754692233
2025-03-26 18:04:54.541078,-0.4,-0.27,0.03,-0.13199052468207118,0.0545415391248228,0.2628902185816459
2025-03-26 18:04:54.602745,-0.59,-0.24,-0.37,-0.10690141668465268,0.10690141668465268,0.11671889372712078
2025-03-26 18:04:54.661563,-0.14,0.4,-0.39,-0.06872233929727672,0.2181661564992912,0.10581058590215622
2025-03-26 18:04:54.720137,-0.2,0.48,-0.2,0.1439896632895322,-0.18216874067690814,0.06217735460229799
2025-03-26 18:04:54.780474,0.09,0.87,0.58,-0.030543261909900768,0.09708393964218458,-0.03599741582238305
2025-03-26 18:04:54.841920,0.96,1.37,-0.16,-0.02945243112740431,-0.044724062082354694,0.04145156973486533
2025-03-26 18:04:54.903189,0.26,1.35,0.58,-0.04145156973486533,0.06654067773228381,0.47669305195095124
2025-03-26 18:04:54.961841,-2.24,-0.32,1.05,-0.18216874067690814,0.22143864884678055,0.3817907738737596
2025-03-26 18:04:55.020432,-1.3,-0.86,1.12,-0.41233403578366035,0.41015237421866746,-0.19416787928436915
2025-03-26 18:04:55.080039,-0.73,0.56,0.78,-0.6108652381980153,0.6970408700152354,-0.5268712679457882
2025-03-26 18:04:55.141959,0.65,0.65,0.9,-0.6828600698427815,1.0537425358915764,-0.37088246604879505
2025-03-26 18:04:55.203390,1.59,0.09,-0.19,-0.5639595145506677,0.8050331174823845,-0.15271630954950383
2025-03-26 18:04:55.262075,2.27,-0.01,0.25,-0.38724492778624187,0.4243331743911214,0.11780972450961724
2025-03-26 18:04:55.320723,2.37,0.02,-0.66,-0.3337942194439155,0.25089107997418486,0.385063266221249
2025-03-26 18:04:55.379346,1.11,0.45,-0.89,-0.17453292519943295,0.38069994309126315,0.7428557628800865
2025-03-26 18:04:55.440591,-0.9400000000000001,0.45,-0.86,-0.018544123302439753,0.20289452554434081,0.6435901616729091
2025-03-26 18:04:55.502280,-1.98,0.0,-0.53,-0.2530727415391778,0.2378011105842274,0.1341721862470641
2025-03-26 18:04:55.562261,-1.28,-0.6900000000000001,-1.25,0.06981317007977318,0.032724923474893676,-0.21598449493429828
2025-03-26 18:04:55.620918,-1.11,-1.05,-0.63,0.32179508083645453,0.0719948316447661,-0.4821472058634335
2025-03-26 18:04:55.679696,0.96,1.03,0.8300000000000001,0.07744898555724837,0.48978302134090873,-0.5486878835957173
2025-03-26 18:04:55.740959,1.12,0.66,1.17,0.09708393964218458,0.2683443724941282,-0.08835729338221293
2025-03-26 18:04:55.802331,-0.62,-0.38,-0.35000000000000003,0.21380283336930536,-0.24216443371421323,0.11017390903214205
2025-03-26 18:04:55.862815,-0.18,-0.81,-0.29,0.1832595714594046,-0.28034351110158917,-0.06217735460229799
2025-03-26 18:04:55.921541,0.45,-1.04,-0.52,0.20507618710933373,0.04799655442984406,-0.16144295580947549
2025-03-26 18:04:55.980211,1.9100000000000001,0.92,1.49,0.09272061651219876,0.16471544815696484,-0.15271630954950383
2025-03-26 18:04:56.041084,1.05,1.35,1.03,0.3937899124812206,-0.4428772976935611,0.050178215994836975
2025-03-26 18:04:56.102685,-0.8,-0.16,0.5700000000000001,0.03599741582238305,-0.19744037163185854,-0.009817477042468103
2025-03-26 18:04:56.163291,0.34,0.46,0.5700000000000001,0.007635815477475192,-0.3327033886614191,-0.11126473981463851
2025-03-26 18:04:56.222031,-0.21,-0.15,-0.16,0.16580627893946132,-0.47778388273344774,-0.10690141668465268
2025-03-26 18:04:56.280589,-1.3900000000000001,-0.43,-0.58,0.16035212502697901,0.45160394395353276,-0.10144726277217041
2025-03-26 18:04:56.340859,0.9500000000000001,0.72,-1.03,0.24216443371421323,0.22143864884678055,-0.13853550937704992
2025-03-26 18:04:56.401375,1.31,1.07,-0.38,0.08835729338221293,0.8977537339945832,0.1308996938995747
2025-03-26 18:04:56.463659,-1.32,-0.63,2.94,-0.1559888018969932,0.4385139745635753,0.11017390903214205
2025-03-26 18:04:56.523513,0.08,0.11,-1.77,-0.06763150851478027,1.0319259202416473,0.30870511144649704
2025-03-26 18:04:56.582222,-2.2600000000000002,-0.28,1.11,-0.19198621771937624,1.0101093045917182,0.09926560120717749
2025-03-26 18:04:56.642207,-0.39,0.19,0.81,0.07635815477475191,-0.35997415822383044,-0.15817046346198613
2025-03-26 18:04:56.702840,1.6400000000000001,1.27,1.51,-0.09272061651219876,0.008726646259971648,0.11344640137963143
2025-03-26 18:04:56.764098,1.1300000000000001,-0.18,-0.5,0.04036073895236887,-0.36979163526629855,0.4232423436086249
2025-03-26 18:04:56.823855,-0.64,-0.75,0.49,-0.07526732399225546,0.09272061651219876,0.44178646691106466
2025-03-26 18:04:56.882563,-1.21,-0.43,-0.03,0.1189005552921137,-0.2650718801466388,0.25743606466916363
2025-03-26 18:04:56.941657,-0.6900000000000001,-0.21,0.42,0.055632369907319255,-0.1407171709420428,0.028361600344907856
2025-03-26 18:04:57.002280,-0.36,0.07,0.3,0.02945243112740431,-0.09381144729469522,-0.06763150851478027
2025-03-26 18:04:57.063733,-0.26,-0.15,0.8300000000000001,0.017453292519943295,-0.10144726277217041,-0.14180800172453928
2025-03-26 18:04:57.124026,-0.74,-0.53,0.02,0.210530341021816,-0.10253809355466686,-0.22362031041177347
2025-03-26 18:04:57.182742,-0.64,-0.09,0.61,-0.28579766501407144,0.30325095753401476,-0.39924406639370286
2025-03-26 18:04:57.241575,1.9100000000000001,1.8,-0.28,-0.5235987755982988,0.619591884457987,-0.12762720155208535
2025-03-26 18:04:57.301739,1.05,1.18,-0.96,-0.868301302867179,1.4246250019403714,0.10253809355466686
2025-03-26 18:04:57.362296,-0.14,-0.04,-0.12,0.3490658503988659,0.003272492347489368,0.10471975511965978
2025-03-26 18:04:57.422702,-0.42,-0.47000000000000003,0.29,0.9686577348568529,-0.4014257279586958,-0.16471544815696484
2025-03-26 18:04:57.482470,-0.04,-0.34,1.05,0.7374016089676042,-0.6141377305455047,-0.33161255787892263
2025-03-26 18:04:57.542238,-1.34,-0.56,-1.72,0.32288591161895097,-0.19634954084936207,-0.2628902185816459
2025-03-26 18:04:57.602649,-1.16,-0.76,-0.21,0.7581273938350369,-0.8072147790473774,-0.3937899124812206
2025-03-26 18:04:57.663282,2.68,0.47000000000000003,1.17,0.8508480103472357,-1.5042556490626129,-0.48105637508093707
2025-03-26 18:04:57.724314,-0.15,0.68,-0.26,-0.358883327441334,1.6580627893946132,0.02399827721492203
2025-03-26 18:04:57.784169,0.3,-0.05,-0.28,0.06544984694978735,0.868301302867179,-0.28907015736156083
2025-03-26 18:04:57.844017,-0.93,-1.2,1.93,0.4603305902135044,-0.6632251157578453,-0.3490658503988659
2025-03-26 18:04:57.904437,2.21,1.36,-2.96,0.37742745074377376,0.8868454261696187,-0.02945243112740431
2025-03-26 18:04:57.965098,0.22,0.89,-0.01,0.6806784082777885,0.8824821030396329,0.5748678223756323
2025-03-26 18:04:58.025852,3.71,2.24,-0.54,0.8323038870447959,0.7995789635699022,0.7188574856651645
2025-03-26 18:04:58.086160,1.1500000000000001,0.89,1.1500000000000001,0.9610219193793778,0.33161255787892263,1.3209960776032081
2025-03-26 18:04:58.146775,1.42,0.3,1.09,1.1846422297911512,-0.2530727415391778,1.5664330036649108
2025-03-26 18:04:58.207374,0.11,0.19,0.06,1.1355548445788106,-0.3174317577064687,1.5849771269673505
2025-03-26 18:04:58.267946,-1.86,-0.53,2.13,1.0461067204141012,-0.44505895925855404,1.6766069126970529
2025-03-26 18:04:58.328739,-1.49,0.21,0.39,0.7810348402674625,-0.3174317577064687,1.1835513990086548
2025-03-26 18:04:58.387588,-2.91,0.43,1.57,0.5039638215133626,-0.12217304763960307,0.8595746566072073
2025-03-26 18:04:58.446502,-2.56,0.74,1.0,0.4374231437810788,-0.3370667117914049,0.29561514205653955
2025-03-26 18:04:58.507839,-0.74,0.36,0.74,0.32615840396644036,-0.10144726277217041,0.13199052468207118
2025-03-26 18:04:58.569248,0.41000000000000003,-1.3800000000000001,0.8200000000000001,0.3959715740462135,-0.09053895494720585,0.4079707126536745
2025-03-26 18:04:58.630313,-0.39,-1.6500000000000001,1.1400000000000001,0.3141592653589793,0.15489797111449674,0.5083271446433485
2025-03-26 18:04:58.690009,-0.08,-0.46,0.5700000000000001,0.30870511144649704,-0.0916297857297023,0.4461497900410505
2025-03-26 18:04:58.748912,-0.6,0.17,0.15,0.25089107997418486,0.037088246604879506,0.30870511144649704
2025-03-26 18:04:58.809393,-0.06,-0.15,-0.55,0.24216443371421323,-0.19744037163185854,0.14835298641951802
2025-03-26 18:04:58.869829,0.45,-0.47000000000000003,-0.47000000000000003,0.22471114119426994,0.13744467859455345,0.1538071403320003
2025-03-26 18:04:58.930532,-0.05,-0.66,0.08,0.24652775684419906,0.4406956361285682,0.08072147790473774
2025-03-26 18:04:58.989286,0.15,-0.41000000000000003,0.62,0.3141592653589793,0.45814892864851153,0.05345070834232634
2025-03-26 18:04:59.047868,-0.5,-0.4,0.33,0.2923426497090502,0.5912302841130791,0.07744898555724837
2025-03-26 18:04:59.108319,0.08,0.29,0.04,0.33488505022641196,0.6130468997630083,0.02181661564992912
2025-03-26 18:04:59.169245,0.27,0.63,-0.06,0.48651052899341934,0.13526301702956053,-0.019634954084936207
2025-03-26 18:04:59.230302,-1.21,1.02,-0.27,0.5028729907308662,-0.06217735460229799,-0.1090830782496456
2025-03-26 18:04:59.289926,0.35000000000000003,1.3900000000000001,-0.7000000000000001,0.7123125009701857,-0.753764070705051,-0.5225079448158024
2025-03-26 18:04:59.348575,-0.05,-1.53,0.09,0.5846852994181004,-0.39924406639370286,0.12871803233458182
2025-03-26 18:04:59.407936,-1.59,-2.47,1.23,0.14726215563702155,0.007635815477475192,0.11671889372712078
2025-03-26 18:04:59.468541,6.21,1.44,0.79,-0.34579335805137656,0.4799655442984406,0.1341721862470641
2025-03-26 18:04:59.530168,-3.56,-0.5700000000000001,-1.0,-0.4559672670835186,0.978475211899321,0.34143003492139073
2025-03-26 18:04:59.590362,-0.51,0.02,0.8300000000000001,-0.009817477042468103,0.495237175253391,0.11126473981463851
2025-03-26 18:04:59.649191,1.03,-0.62,0.78,0.27379852640661045,0.4363323129985824,0.09381144729469522
2025-03-26 18:04:59.708040,-0.34,-0.49,1.11,0.35779249665883756,0.16907877128695067,0.015271630954950384
2025-03-26 18:04:59.768643,-0.17,-0.09,-0.48,0.3785182815262702,0.09053895494720585,0.002181661564992912
2025-03-26 18:04:59.830080,0.4,-0.48,-0.21,0.27707101875409984,0.25743606466916363,-0.009817477042468103
2025-03-26 18:04:59.890984,-0.27,-0.56,0.56,0.16035212502697901,-0.020725784867432664,-0.017453292519943295
2025-03-26 18:04:59.949652,-0.01,-0.44,-0.11,0.09490227807719166,-0.10253809355466686,-0.019634954084936207
2025-03-26 18:05:00.008389,0.0,-0.3,-0.07,-0.04690572364734761,-0.09490227807719166,-0.022907446432425576
2025-03-26 18:05:00.068955,-0.22,-0.11,-0.36,-0.04145156973486533,-0.25416357232167425,-0.011999138607461015
2025-03-26 18:05:00.129306,0.58,-0.74,-0.04,-0.15817046346198613,-0.05781403147231216,-0.018544123302439753
2025-03-26 18:05:00.189874,-0.39,-0.05,-0.51,-0.2476185876266955,-0.1908953869368798,-0.05781403147231216
2025-03-26 18:05:00.249618,0.38,-0.77,0.4,-0.2825251726665821,-0.00545415391248228,-0.09708393964218458
2025-03-26 18:05:00.309514,-0.09,-0.44,0.35000000000000003,-0.2650718801466388,-0.11017390903214205,-0.18544123302439752
2025-03-26 18:05:00.369778,0.19,-0.32,0.0,-0.055632369907319255,-0.2181661564992912,-0.2683443724941282
2025-03-26 18:05:00.430241,0.26,-0.65,1.05,-0.08726646259971647,-0.1908953869368798,-0.37306412761378793
2025-03-26 18:05:00.490729,0.59,-0.4,-0.24,-0.13744467859455345,-0.5475970528132209,-0.595593607243065
2025-03-26 18:05:00.550222,0.78,-0.75,0.71,-0.2007128639793479,-0.6534076387153771,-0.7330382858376184
2025-03-26 18:05:00.609882,0.81,-0.78,1.23,-0.5999569303730508,-1.0810133054539879,-0.8028514559173916
2025-03-26 18:05:00.670181,0.14,1.25,-1.06,-0.6414085001079161,-1.4278974942878608,-0.6992225315802283
2025-03-26 18:05:00.730768,2.2800000000000002,2.54,0.7000000000000001,-0.8377580409572782,-1.22500296874352,-0.41015237421866746
2025-03-26 18:05:00.791921,2.83,3.85,1.75,-1.150826475533761,-0.8639379797371931,0.6228643768054763
2025-03-26 18:05:00.851120,-0.71,0.87,1.22,-1.1420998292737894,-0.8453938564347534,1.3439035240356338
2025-03-26 18:05:00.910900,-6.51,-4.28,0.42,-0.8377580409572782,-0.9512044423369096,1.4464416175903005
2025-03-26 18:05:00.971880,-2.35,-1.92,-2.34,0.03599741582238305,-1.2620912153483996,0.8912087492996045
2025-03-26 18:05:01.032197,-1.29,-2.0,0.1,-0.003272492347489368,-1.0090184738092218,0.4756022211684548
2025-03-26 18:05:01.092465,0.1,0.58,-0.07,-0.025089107997418487,-1.2042771838760873,0.3239767424014474
2025-03-26 18:05:01.152100,-0.37,0.6900000000000001,0.64,-0.29670597283903605,-0.7275841319251362,0.4046982203061852
2025-03-26 18:05:01.211988,0.0,1.57,0.23,-0.38942658935123475,-0.27379852640661045,0.48651052899341934
2025-03-26 18:05:01.271315,-1.8900000000000001,-0.53,1.1300000000000001,-0.5879577917655898,0.2617993877991494,0.46796640569097964
2025-03-26 18:05:01.332080,-2.38,-1.58,1.34,-0.507236313860852,0.07744898555724837,-0.10690141668465268
2025-03-26 18:05:01.392580,-0.79,-1.62,0.5700000000000001,-0.7526732399225546,0.40033489717619936,-0.4014257279586958
2025-03-26 18:05:01.452902,0.25,0.04,0.62,-0.6141377305455047,0.0719948316447661,-0.7352199474026113
2025-03-26 18:05:01.512644,1.58,1.6,0.5700000000000001,-1.0711958284115197,0.8552113334772214,-0.3948807432637171
2025-03-26 18:05:01.571359,-0.4,0.84,1.51,-0.9075712110370514,0.33815754257390135,-0.19744037163185854
2025-03-26 18:05:01.631931,-1.0,-0.44,-1.26,-0.9304786574694769,0.8148505945248526,-0.2923426497090502
2025-03-26 18:05:01.692414,1.33,1.42,1.35,-1.1181015520588673,1.1595531217937327,-0.08290313946973066
2025-03-26 18:05:01.753472,-0.98,-0.56,0.17,-1.3286318930806833,1.4606224177627545,0.08835729338221293
2025-03-26 18:05:01.813039,-2.72,-2.72,0.02,-0.9261153343394911,0.8148505945248526,-0.37088246604879505
2025-03-26 18:05:01.871617,-2.58,-1.75,-2.58,-0.0818123086872342,-0.06763150851478027,-0.35779249665883756
2025-03-26 18:05:01.932171,1.05,-1.24,-2.0,0.6544984694978736,-1.2064588454410803,-0.9108437033845407
2025-03-26 18:05:01.992875,4.0600000000000005,0.56,2.75,0.6086835766330224,-1.7376934365168544,-0.6468626540203984
2025-03-26 18:05:02.054150,2.1,3.54,-3.77,0.6381360077604268,-0.7461282552275759,0.09490227807719166
2025-03-26 18:05:02.113930,6.3,1.37,-3.2,1.0199267816341864,-0.6250460383704692,0.4036073895236887
2025-03-26 18:05:02.172700,-7.23,-2.77,5.79,-0.03381575425739013,-0.2203478180642841,0.25743606466916363
2025-03-26 18:05:02.233383,-1.31,-0.2,-0.98,-0.004363323129985824,0.044724062082354694,-0.6414085001079161
2025-03-26 18:05:02.293767,5.05,2.67,-0.68,0.6490443155853913,-1.0853766285839737,-0.28688849579656794
2025-03-26 18:05:02.355193,-1.35,-1.1400000000000001,0.71,0.28579766501407144,-0.4177881896961426,-0.0545415391248228
2025-03-26 18:05:02.414886,-3.5,-3.66,3.33,0.559596191420682,-1.9514962698861598,-0.5923211148955756
2025-03-26 18:05:02.473623,2.11,0.3,-4.36,0.30543261909900765,-2.1205750411731104,-1.0341075818066403
2025-03-26 18:05:02.534276,-0.91,-0.93,-2.7600000000000002,0.15817046346198613,0.7723081940074908,-0.6544984694978736
2025-03-26 18:05:02.594705,3.21,4.75,-0.99,0.8268497331323136,0.2301652951067522,-0.29343348049154666
2025-03-26 18:05:02.656020,-2.71,0.84,-1.56,0.5366887449882564,0.5650503453331642,0.0818123086872342
2025-03-26 18:05:02.715910,0.18,1.37,-0.19,1.0461067204141012,0.4112432050011639,0.04799655442984406
2025-03-26 18:05:02.774879,0.01,-1.21,0.87,0.9370236421644557,0.2617993877991494,0.07635815477475191
2025-03-26 18:05:02.835605,-1.72,-2.59,2.05,0.4636030825609938,0.753764070705051,-0.1538071403320003
2025-03-26 18:05:02.896151,-0.51,0.2,0.9500000000000001,0.3687008044838021,0.3534291735288517,-0.47451139038595835
2025-03-26 18:05:02.957437,0.63,0.63,-0.46,0.3534291735288517,0.7395832705325971,-0.3294308963139297
2025-03-26 18:05:03.017188,3.34,-0.24,1.48,0.48105637508093707,0.6959500392327389,0.037088246604879506
2025-03-26 18:05:03.075776,-3.48,-1.34,2.57,-0.21162117180431245,-0.05999569303730508,0.04145156973486533
2025-03-26 18:05:03.135873,-0.71,1.73,-0.8200000000000001,0.0272707695624114,-0.32506757318394386,-0.10799224746714914
2025-03-26 18:05:03.196209,0.64,1.4000000000000001,-2.2,0.044724062082354694,-0.4341506514335895,-0.16144295580947549
2025-03-26 18:05:03.257491,0.41000000000000003,0.05,-0.06,-0.05999569303730508,-0.04908738521234052,-0.15162547876700738
2025-03-26 18:05:03.318294,-0.21,0.0,0.23,0.12544553998709243,-0.15926129424448257,-0.1734420944169365
2025-03-26 18:05:03.376986,-0.22,-0.45,0.31,-0.04145156973486533,0.16035212502697901,-0.19744037163185854
2025-03-26 18:05:03.436945,-0.9400000000000001,-0.04,0.05,-0.18435040224190105,0.19962203319685143,-0.18435040224190105
2025-03-26 18:05:03.497933,-0.22,0.08,0.52,-0.12980886311707826,0.20507618710933373,-0.10362892433716332
2025-03-26 18:05:03.559119,0.6,-0.56,0.76,-0.10144726277217041,0.6883142237552637,-0.025089107997418487
2025-03-26 18:05:03.618839,-0.91,-1.5,0.03,0.013089969389957472,0.7024950239277177,0.006544984694978736
2025-03-26 18:05:03.677571,-0.63,0.56,-0.61,0.07417649320975901,0.8595746566072073,0.006544984694978736
2025-03-26 18:05:03.737437,-0.27,-0.44,0.19,0.05999569303730508,0.8235772407848243,0.11453723216212788
2025-03-26 18:05:03.798548,-0.36,-0.68,0.75,0.08290313946973066,0.7941248096574199,0.09272061651219876
2025-03-26 18:05:03.859452,0.15,-0.23,0.23,0.26070855701665296,0.7003133623627247,-0.00545415391248228
2025-03-26 18:05:03.918768,-0.08,0.72,-0.37,0.2792526803190927,0.5508695451607103,-0.08944812416470939
2025-03-26 18:05:03.977532,-0.38,0.05,-0.1,0.3043417883165112,0.6130468997630083,-0.11562806294462433
2025-03-26 18:05:04.036256,0.7000000000000001,-0.02,1.04,0.24980024919168842,0.7112216701876893,-0.16907877128695067
2025-03-26 18:05:04.096583,-0.32,0.06,0.52,0.27379852640661045,0.5966844380255614,-0.09053895494720585
2025-03-26 18:05:04.157682,-1.5,0.12,-1.03,0.18653206380689397,0.2977968036215325,-0.09926560120717749
2025-03-26 18:05:04.218774,1.1400000000000001,-0.26,0.53,0.14508049407202864,0.5028729907308662,-0.15926129424448257
2025-03-26 18:05:04.277481,-0.01,0.28,0.07,0.17235126363444003,0.3076142806640006,-0.1341721862470641
2025-03-26 18:05:04.336229,0.52,0.92,0.21,0.09490227807719166,0.18653206380689397,-0.13962634015954636
2025-03-26 18:05:04.396643,-0.08,-0.2,-0.17,0.03381575425739013,0.06872233929727672,-0.05126904677733343
2025-03-26 18:05:04.457579,-0.61,-0.2,-0.01,0.032724923474893676,0.17998707911191522,-0.008726646259971648
2025-03-26 18:05:04.519389,0.9400000000000001,0.4,0.0,0.03599741582238305,0.3010692959690218,-0.09926560120717749
2025-03-26 18:05:04.578275,-0.41000000000000003,-0.5,-0.15,0.044724062082354694,0.2912518189265537,-0.03599741582238305
2025-03-26 18:05:04.637205,-1.28,0.03,-0.16,-0.002181661564992912,0.11344640137963143,-0.013089969389957472
2025-03-26 18:05:04.697822,1.37,0.3,0.91,-0.07744898555724837,0.18544123302439752,-0.12217304763960307
2025-03-26 18:05:04.758929,-0.81,-1.25,0.0,-0.01090830782496456,0.08835729338221293,-0.050178215994836975
2025-03-26 18:05:04.820384,2.7800000000000002,-0.1,-0.16,-0.09381144729469522,0.6206827152404835,-0.20616701789183017
2025-03-26 18:05:04.879195,-18.04,-9.42,1.71,-0.6457718232379019,3.4884768424236663,-0.7853981633974483
2025-03-26 18:05:04.937789,1.6600000000000001,-0.59,0.9,0.020725784867432664,0.32506757318394386,0.2683443724941282
2025-03-26 18:05:04.997872,0.91,0.63,2.7600000000000002,-0.20180369476184434,-0.07853981633974483,0.22907446432425577
2025-03-26 18:05:05.058924,2.96,0.14,1.2,-0.17671458676442586,0.11344640137963143,0.22252947962927702
2025-03-26 18:05:05.120713,0.33,0.39,-0.29,0.2454369260617026,0.21271200258680892,0.20616701789183017
2025-03-26 18:05:05.179298,-0.16,-0.02,-0.13,0.11126473981463851,0.2203478180642841,0.15162547876700738
2025-03-26 18:05:05.238150,-0.5700000000000001,-0.09,-0.77,-0.015271630954950384,-0.09926560120717749,0.05126904677733343
2025-03-26 18:05:05.297249,0.01,-0.28,0.47000000000000003,-0.04363323129985824,-0.08399397025222712,0.013089969389957472
2025-03-26 18:05:05.358782,0.22,-0.43,0.8200000000000001,0.09926560120717749,0.00545415391248228,0.038179077387375956
2025-03-26 18:05:05.419969,-0.14,0.07,-0.41000000000000003,0.04145156973486533,0.011999138607461015,0.020725784867432664
2025-03-26 18:05:05.479269,-0.26,0.48,-0.21,-0.09272061651219876,-0.13199052468207118,0.028361600344907856
2025-03-26 18:05:05.538096,-0.88,-0.43,-0.16,-0.18216874067690814,0.3010692959690218,0.2530727415391778
2025-03-26 18:05:05.596923,0.46,0.01,1.21,0.18980455615438332,0.3719732968312915,0.21707532571679475
2025-03-26 18:05:05.659753,0.6900000000000001,-2.0100000000000002,-0.37,0.04690572364734761,1.0810133054539879,0.2694352032766246
2025-03-26 18:05:05.721375,-1.57,-1.0,3.16,0.0,0.2716168648416175,-0.03490658503988659
2025-03-26 18:05:05.780978,0.56,-1.12,0.32,0.28034351110158917,-0.36760997370130566,-0.018544123302439753
2025-03-26 18:05:05.839680,0.49,0.74,-0.19,0.10690141668465268,0.09599310885968812,-0.019634954084936207
2025-03-26 18:05:05.898308,-0.53,-0.27,0.4,-0.07635815477475191,0.1265363707695889,0.09381144729469522
2025-03-26 18:05:05.959665,-1.26,-0.45,0.72,-0.16798794050445423,0.11235557059713497,0.136353847812057
2025-03-26 18:05:06.021126,-0.43,-0.59,0.37,-0.04254240051736178,-0.11562806294462433,-0.05235987755982989
2025-03-26 18:05:06.081311,1.2,-0.18,-1.57,0.09272061651219876,-0.21271200258680892,-0.06763150851478027
2025-03-26 18:05:06.139797,0.39,-1.09,1.53,-0.03599741582238305,-0.46796640569097964,-0.08726646259971647
2025-03-26 18:05:06.200278,-1.73,-0.24,0.27,0.0719948316447661,-0.08072147790473774,-0.009817477042468103
2025-03-26 18:05:06.261643,0.22,-0.78,0.29,0.11453723216212788,-0.1636246173744684,0.004363323129985824
2025-03-26 18:05:06.322905,-0.21,-0.63,0.04,0.01090830782496456,-0.16471544815696484,0.04363323129985824
2025-03-26 18:05:06.383469,0.8,-0.62,0.26,-0.08508480103472356,0.06435901616729091,0.07417649320975901
2025-03-26 18:05:06.442049,0.65,-0.21,-0.8300000000000001,-0.04363323129985824,0.15817046346198613,0.10253809355466686
