Time,AccX,AccY,AccZ,GyroX,GyroY,GyroZ
2025-03-19 14:59:37.409077,0.0,0.0,0.0,-0.002181661564992912,0.0,0.002181661564992912
2025-03-19 14:59:37.465182,0.0,0.0,0.0,0.009817477042468103,0.007635815477475192,-0.006544984694978736
2025-03-19 14:59:37.521185,-0.07,0.0,0.03,0.007635815477475192,0.00545415391248228,-0.006544984694978736
2025-03-19 14:59:37.576659,-0.03,-0.02,0.03,0.00545415391248228,0.006544984694978736,-0.007635815477475192
2025-03-19 14:59:37.633218,-0.04,0.0,0.0,0.006544984694978736,0.002181661564992912,-0.006544984694978736
2025-03-19 14:59:37.687898,-0.07,0.0,0.0,0.001090830782496456,0.002181661564992912,-0.004363323129985824
2025-03-19 14:59:37.745125,-0.02,0.01,0.06,0.007635815477475192,0.004363323129985824,-0.004363323129985824
2025-03-19 14:59:37.799909,-0.06,0.03,0.03,0.001090830782496456,0.002181661564992912,-0.004363323129985824
2025-03-19 14:59:37.856002,-0.03,0.04,0.06,0.006544984694978736,0.004363323129985824,-0.00545415391248228
2025-03-19 14:59:37.910352,-0.05,0.01,0.02,0.0,-0.004363323129985824,-0.003272492347489368
2025-03-19 14:59:37.967224,-0.04,0.0,0.06,-0.001090830782496456,-0.006544984694978736,0.004363323129985824
2025-03-19 14:59:38.022494,-0.07,0.05,0.03,0.0,-0.003272492347489368,0.002181661564992912
2025-03-19 14:59:38.078491,-0.05,-0.03,0.02,0.001090830782496456,0.00545415391248228,0.002181661564992912
2025-03-19 14:59:38.134269,-0.03,-0.01,0.07,0.003272492347489368,0.002181661564992912,-0.002181661564992912
2025-03-19 14:59:38.189719,-0.04,-0.01,0.01,-0.003272492347489368,-0.004363323129985824,-0.001090830782496456
2025-03-19 14:59:38.245986,-0.03,0.01,0.04,-0.00545415391248228,-0.00545415391248228,-0.002181661564992912
2025-03-19 14:59:38.301132,-0.09,0.07,0.06,0.001090830782496456,-0.001090830782496456,0.0
2025-03-19 14:59:38.355577,-0.03,0.02,0.05,0.003272492347489368,0.007635815477475192,0.002181661564992912
2025-03-19 14:59:38.411128,-0.04,0.02,0.09,0.008726646259971648,0.008726646259971648,-0.002181661564992912
2025-03-19 14:59:38.467529,-0.05,-0.03,0.04,0.007635815477475192,0.008726646259971648,-0.003272492347489368
2025-03-19 14:59:38.522274,-0.03,0.02,0.08,-0.00545415391248228,0.001090830782496456,-0.002181661564992912
2025-03-19 14:59:38.579569,-0.02,0.05,0.02,0.003272492347489368,0.003272492347489368,-0.001090830782496456
2025-03-19 14:59:38.634047,0.0,0.0,0.01,-0.008726646259971648,-0.007635815477475192,0.001090830782496456
2025-03-19 14:59:38.690865,0.05,0.01,0.04,-0.004363323129985824,-0.011999138607461015,0.002181661564992912
2025-03-19 14:59:38.745656,-0.01,0.0,0.04,-0.011999138607461015,-0.01090830782496456,0.00545415391248228
2025-03-19 14:59:38.802246,0.04,0.0,0.03,-0.002181661564992912,-0.003272492347489368,0.004363323129985824
2025-03-19 14:59:38.856684,0.0,0.05,0.05,-0.003272492347489368,0.001090830782496456,0.001090830782496456
2025-03-19 14:59:38.911358,0.0,0.02,0.03,0.02945243112740431,0.02945243112740431,-0.007635815477475192
2025-03-19 14:59:38.965736,0.0,-0.07,-0.01,0.020725784867432664,0.04363323129985824,-0.016362461737446838
2025-03-19 14:59:39.020315,0.08,0.03,0.08,0.013089969389957472,0.038179077387375956,-0.014180800172453928
2025-03-19 14:59:39.075390,0.04,0.0,0.03,0.008726646259971648,0.016362461737446838,-0.013089969389957472
2025-03-19 14:59:39.132687,0.07,0.0,0.04,-0.007635815477475192,-0.008726646259971648,0.004363323129985824
2025-03-19 14:59:39.187172,0.05,0.04,0.09,-0.03381575425739013,-0.038179077387375956,0.017453292519943295
2025-03-19 14:59:39.243974,0.04,0.02,0.07,-0.02181661564992912,-0.04363323129985824,0.02181661564992912
2025-03-19 14:59:39.298673,-0.01,0.05,0.07,-0.04690572364734761,-0.04799655442984406,0.018544123302439753
2025-03-19 14:59:39.355252,0.06,0.07,0.09,-0.006544984694978736,-0.030543261909900768,0.011999138607461015
2025-03-19 14:59:39.409593,-0.02,-0.01,0.0,-0.015271630954950384,-0.016362461737446838,0.00545415391248228
2025-03-19 14:59:39.465499,0.04,0.06,0.09,-0.006544984694978736,-0.008726646259971648,0.003272492347489368
2025-03-19 14:59:39.521250,0.03,0.0,0.06,-0.01090830782496456,-0.009817477042468103,0.0
2025-03-19 14:59:39.577080,0.04,0.04,0.1,-0.006544984694978736,-0.007635815477475192,0.004363323129985824
2025-03-19 14:59:39.633168,0.02,0.01,0.07,-0.008726646259971648,-0.004363323129985824,0.004363323129985824
2025-03-19 14:59:39.688022,0.04,0.04,0.1,0.0,0.003272492347489368,0.002181661564992912
2025-03-19 14:59:39.744160,0.06,-0.04,0.04,-0.004363323129985824,0.004363323129985824,0.0
2025-03-19 14:59:39.798776,0.02,0.09,0.08,0.0,0.0,-0.002181661564992912
2025-03-19 14:59:39.854742,0.12,-0.17,0.03,-0.037088246604879506,-0.008726646259971648,0.004363323129985824
2025-03-19 14:59:39.909544,0.0,0.11,0.16,-0.05672320068981571,-0.020725784867432664,0.003272492347489368
2025-03-19 14:59:39.963332,0.12,-0.02,0.13,-0.03599741582238305,-0.044724062082354694,0.016362461737446838
2025-03-19 14:59:40.017325,0.06,0.15,0.16,-0.050178215994836975,-0.0545415391248228,0.028361600344907856
2025-03-19 14:59:40.071142,-0.03,0.13,0.16,0.01090830782496456,-0.04036073895236887,0.020725784867432664
2025-03-19 14:59:40.124957,-0.02,-0.02,0.06,0.07744898555724837,-0.017453292519943295,0.0
2025-03-19 14:59:40.179482,-0.01,-0.18,-0.04,0.025089107997418487,0.025089107997418487,-0.007635815477475192
2025-03-19 14:59:40.234023,0.03,-0.11,-0.01,-0.05345070834232634,0.06217735460229799,-0.002181661564992912
2025-03-19 14:59:40.291502,0.09,0.24,0.31,-0.06763150851478027,0.06326818538479445,0.013089969389957472
2025-03-19 14:59:40.349761,0.1,0.0,0.13,0.0,0.05345070834232634,0.007635815477475192
2025-03-19 14:59:40.403785,0.07,-0.1,0.06,-0.04254240051736178,0.038179077387375956,0.0
2025-03-19 14:59:40.462873,0.01,0.1,0.15,-0.039269908169872414,0.04145156973486533,-0.019634954084936207
2025-03-19 14:59:40.517122,0.04,-0.05,0.1,-0.011999138607461015,0.04036073895236887,-0.020725784867432664
2025-03-19 14:59:40.573201,0.1,0.0,0.1,-0.03381575425739013,0.02945243112740431,-0.01090830782496456
2025-03-19 14:59:40.627268,0.08,0.08,0.2,-0.03381575425739013,-0.00545415391248228,-0.002181661564992912
2025-03-19 14:59:40.681810,0.13,0.0,0.17,-0.006544984694978736,-0.030543261909900768,0.01090830782496456
2025-03-19 14:59:40.736125,0.08,-0.03,0.03,-0.03599741582238305,-0.04145156973486533,0.016362461737446838
2025-03-19 14:59:40.792757,-0.07,0.14,0.12,-0.04036073895236887,-0.03599741582238305,0.003272492347489368
2025-03-19 14:59:40.846981,0.02,-0.04,0.07,0.020725784867432664,-0.011999138607461015,-0.02181661564992912
2025-03-19 14:59:40.903594,0.07,-0.04,0.04,0.004363323129985824,-0.019634954084936207,-0.014180800172453928
2025-03-19 14:59:40.958532,0.02,0.11,0.16,-0.02945243112740431,-0.03599741582238305,0.008726646259971648
2025-03-19 14:59:41.014808,0.0,-0.04,0.06,-0.002181661564992912,-0.02399827721492203,0.014180800172453928
2025-03-19 14:59:41.069086,0.04,-0.03,0.08,0.002181661564992912,-0.007635815477475192,0.0
2025-03-19 14:59:41.123657,0.03,0.13,0.16,0.01090830782496456,0.02181661564992912,-0.017453292519943295
2025-03-19 14:59:41.182306,-0.01,0.07,0.05,0.04254240051736178,0.04363323129985824,-0.019634954084936207
2025-03-19 14:59:41.241867,0.14,-0.14,0.09,-0.004363323129985824,0.026179938779914945,0.009817477042468103
2025-03-19 14:59:41.299815,1.4000000000000001,-0.01,0.13,-0.01090830782496456,-0.006544984694978736,-0.001090830782496456
2025-03-19 14:59:41.357757,1.3,0.0,0.12,-0.018544123302439753,-0.017453292519943295,-0.01090830782496456
2025-03-19 14:59:41.418234,0.05,-0.1,0.02,-0.04145156973486533,-0.007635815477475192,-0.00545415391248228
2025-03-19 14:59:41.478216,0.02,0.12,0.17,-0.0272707695624114,-0.014180800172453928,-0.001090830782496456
2025-03-19 14:59:41.538807,0.03,-0.02,0.06,-0.009817477042468103,-0.014180800172453928,0.004363323129985824
2025-03-19 14:59:41.599610,0.06,0.05,0.11,-0.017453292519943295,-0.014180800172453928,0.00545415391248228
2025-03-19 14:59:41.660474,0.0,0.01,0.08,0.008726646259971648,-0.007635815477475192,-0.003272492347489368
2025-03-19 14:59:41.721827,0.09,0.0,0.12,-0.003272492347489368,-0.003272492347489368,-0.008726646259971648
2025-03-19 14:59:41.781024,-0.01,0.02,0.07,0.00545415391248228,-0.001090830782496456,-0.009817477042468103
2025-03-19 14:59:41.841385,0.08,-0.01,0.1,0.002181661564992912,0.0,0.004363323129985824
2025-03-19 14:59:41.902316,0.01,0.08,0.15,0.00545415391248228,0.0,0.0
2025-03-19 14:59:41.963683,0.07,-0.03,0.09,0.019634954084936207,0.015271630954950384,0.006544984694978736
2025-03-19 14:59:42.023838,0.01,-0.03,0.06,-0.013089969389957472,0.032724923474893676,0.025089107997418487
2025-03-19 14:59:42.082668,0.09,0.0,0.17,-0.002181661564992912,0.02399827721492203,0.013089969389957472
2025-03-19 14:59:42.141485,0.07,-0.12,0.06,0.007635815477475192,0.025089107997418487,-0.018544123302439753
2025-03-19 14:59:42.201651,0.0,0.04,0.13,-0.003272492347489368,0.020725784867432664,-0.032724923474893676
2025-03-19 14:59:42.262119,0.01,0.13,0.11,0.009817477042468103,0.022907446432425576,-0.017453292519943295
2025-03-19 14:59:42.323314,0.03,-0.06,0.08,0.017453292519943295,0.02945243112740431,0.004363323129985824
2025-03-19 14:59:42.383147,0.09,0.05,0.16,0.011999138607461015,0.026179938779914945,0.007635815477475192
2025-03-19 14:59:42.443665,0.07,-0.05,0.11,0.002181661564992912,0.00545415391248228,0.0
2025-03-19 14:59:42.504060,0.09,-0.05,0.11,-0.015271630954950384,-0.007635815477475192,-0.002181661564992912
2025-03-19 14:59:42.564521,0.04,0.03,0.14,-0.028361600344907856,-0.020725784867432664,-0.001090830782496456
2025-03-19 14:59:42.626054,0.06,0.1,0.18,-0.007635815477475192,-0.02399827721492203,-0.004363323129985824
2025-03-19 14:59:42.686526,0.03,0.02,0.16,-0.008726646259971648,-0.019634954084936207,0.008726646259971648
2025-03-19 14:59:42.746687,0.07,0.01,0.15,-0.006544984694978736,-0.018544123302439753,0.017453292519943295
2025-03-19 14:59:42.807011,0.07,0.03,0.18,-0.004363323129985824,-0.028361600344907856,0.017453292519943295
2025-03-19 14:59:42.867268,0.04,-0.05,0.1,-0.017453292519943295,-0.019634954084936207,0.008726646259971648
2025-03-19 14:59:42.928148,0.04,-0.03,0.13,-0.006544984694978736,-0.006544984694978736,-0.00545415391248228
2025-03-19 14:59:42.988929,0.05,0.04,0.14,0.003272492347489368,0.006544984694978736,-0.009817477042468103
2025-03-19 14:59:43.049149,0.03,0.01,0.15,-0.003272492347489368,0.014180800172453928,-0.00545415391248228
2025-03-19 14:59:43.109235,0.1,0.13,0.25,0.00545415391248228,0.004363323129985824,0.0
2025-03-19 14:59:43.169254,0.03,-0.02,0.1,0.002181661564992912,0.001090830782496456,0.006544984694978736
2025-03-19 14:59:43.230199,0.06,0.01,0.18,-0.004363323129985824,-0.003272492347489368,0.01090830782496456
2025-03-19 14:59:43.290729,0.13,-0.03,0.22,-0.009817477042468103,-0.00545415391248228,0.002181661564992912
2025-03-19 14:59:43.351058,0.01,0.03,0.14,-0.002181661564992912,-0.015271630954950384,-0.002181661564992912
2025-03-19 14:59:43.411176,0.1,0.0,0.17,-0.011999138607461015,-0.02181661564992912,0.006544984694978736
2025-03-19 14:59:43.471222,0.01,0.07,0.15,-0.004363323129985824,-0.025089107997418487,0.011999138607461015
2025-03-19 14:59:43.531429,0.08,-0.06,0.13,-0.014180800172453928,-0.019634954084936207,0.016362461737446838
2025-03-19 14:59:43.590757,0.01,0.05,0.21,0.0,-0.002181661564992912,0.0
2025-03-19 14:59:43.651826,-0.01,-0.03,0.07,0.007635815477475192,0.016362461737446838,-0.01090830782496456
2025-03-19 14:59:43.712802,0.1,0.04,0.2,-0.00545415391248228,0.03381575425739013,-0.013089969389957472
2025-03-19 14:59:43.772959,0.13,-0.08,0.09,-0.011999138607461015,0.015271630954950384,-0.007635815477475192
2025-03-19 14:59:43.833718,0.09,0.09,0.18,-0.06217735460229799,-0.02181661564992912,0.014180800172453928
2025-03-19 14:59:43.892518,0.09,0.07,0.25,-0.05781403147231216,-0.04145156973486533,0.02945243112740431
2025-03-19 14:59:43.952186,0.02,-0.09,0.08,-0.02945243112740431,-0.04908738521234052,0.020725784867432664
2025-03-19 14:59:44.013010,-0.01,0.09,0.1,-0.022907446432425576,-0.04690572364734761,0.009817477042468103
2025-03-19 14:59:44.073422,0.0,0.05,0.1,0.009817477042468103,-0.032724923474893676,-0.003272492347489368
2025-03-19 14:59:44.133933,0.01,0.05,0.13,0.011999138607461015,-0.002181661564992912,0.0
2025-03-19 14:59:44.193127,0.01,0.0,0.09,0.015271630954950384,0.00545415391248228,-0.001090830782496456
2025-03-19 14:59:44.251825,0.08,0.01,0.18,0.019634954084936207,0.025089107997418487,-0.009817477042468103
2025-03-19 14:59:44.312343,0.01,0.05,0.15,0.006544984694978736,0.028361600344907856,-0.017453292519943295
2025-03-19 14:59:44.373744,0.1,-0.05,0.09,-0.002181661564992912,0.026179938779914945,-0.011999138607461015
2025-03-19 14:59:44.435072,0.06,0.03,0.17,-0.001090830782496456,0.014180800172453928,-0.00545415391248228
2025-03-19 14:59:44.494761,0.04,0.05,0.15,-0.016362461737446838,-0.004363323129985824,0.011999138607461015
2025-03-19 14:59:44.555317,0.08,0.09,0.21,-0.009817477042468103,-0.018544123302439753,0.011999138607461015
2025-03-19 14:59:44.615351,0.05,-0.06,0.1,-0.014180800172453928,-0.031634092692397225,0.011999138607461015
2025-03-19 14:59:44.676359,0.0,0.13,0.16,0.0,-0.032724923474893676,0.016362461737446838
2025-03-19 14:59:44.737838,0.01,0.0,0.07,0.00545415391248228,-0.011999138607461015,0.018544123302439753
2025-03-19 14:59:44.797144,0.04,0.01,0.12,0.001090830782496456,-0.002181661564992912,0.009817477042468103
2025-03-19 14:59:44.857420,0.03,-0.03,0.13,-0.00545415391248228,0.004363323129985824,-0.001090830782496456
2025-03-19 14:59:44.917898,0.02,0.02,0.13,-0.001090830782496456,0.011999138607461015,-0.001090830782496456
2025-03-19 14:59:44.978295,0.07,0.01,0.15,-0.016362461737446838,0.003272492347489368,0.004363323129985824
2025-03-19 14:59:45.038834,0.05,0.03,0.15,-0.007635815477475192,-0.004363323129985824,0.006544984694978736
2025-03-19 14:59:45.098365,0.06,0.0,0.17,-0.02181661564992912,-0.022907446432425576,0.014180800172453928
2025-03-19 14:59:45.166505,0.06,0.04,0.16,-0.00545415391248228,-0.037088246604879506,0.007635815477475192
2025-03-19 14:59:45.225447,1.28,-0.02,0.1,0.0272707695624114,-0.018544123302439753,-0.001090830782496456
2025-03-19 14:59:45.284034,-0.01,-0.01,0.07,0.018544123302439753,-0.006544984694978736,0.00545415391248228
2025-03-19 14:59:45.343363,0.05,0.01,0.13,0.001090830782496456,0.011999138607461015,0.01090830782496456
2025-03-19 14:59:45.404405,0.01,-0.02,0.1,-0.002181661564992912,0.016362461737446838,0.007635815477475192
2025-03-19 14:59:45.465622,0.0,-0.01,0.08,-0.004363323129985824,0.025089107997418487,0.009817477042468103
2025-03-19 14:59:45.525710,0.03,0.0,0.12,-0.011999138607461015,0.030543261909900768,0.008726646259971648
2025-03-19 14:59:45.586029,0.04,0.16,0.23,0.018544123302439753,0.038179077387375956,0.00545415391248228
2025-03-19 14:59:45.645283,0.11,-0.03,0.18,0.0545415391248228,0.037088246604879506,-0.006544984694978736
2025-03-19 14:59:45.705011,0.04,0.11,0.19,0.06763150851478027,0.02399827721492203,-0.008726646259971648
2025-03-19 14:59:45.764768,0.12,-0.09,0.04,0.028361600344907856,0.014180800172453928,0.007635815477475192
2025-03-19 14:59:45.825291,0.03,0.03,0.12,-0.03599741582238305,-0.003272492347489368,0.020725784867432664
2025-03-19 14:59:45.885313,0.09,0.0,0.17,-0.017453292519943295,-0.020725784867432664,0.008726646259971648
2025-03-19 14:59:45.945681,0.03,-0.03,0.07,-0.031634092692397225,-0.01090830782496456,-0.002181661564992912
2025-03-19 14:59:46.007262,0.01,0.1,0.17,0.0,-0.004363323129985824,-0.007635815477475192
2025-03-19 14:59:46.068792,0.0,0.02,0.11,0.00545415391248228,0.011999138607461015,-0.003272492347489368
2025-03-19 14:59:46.128631,0.0,-0.02,0.11,-0.016362461737446838,0.015271630954950384,0.002181661564992912
2025-03-19 14:59:46.188579,0.04,0.0,0.11,-0.002181661564992912,0.017453292519943295,0.006544984694978736
2025-03-19 14:59:46.248336,0.08,-0.03,0.15,-0.02945243112740431,0.006544984694978736,0.001090830782496456
2025-03-19 14:59:46.307719,0.03,-0.06,0.12,-0.013089969389957472,-0.006544984694978736,0.001090830782496456
2025-03-19 14:59:46.366492,0.05,-0.03,0.13,-0.04581489286485115,-0.020725784867432664,0.006544984694978736
2025-03-19 14:59:46.427560,0.0,0.0,0.14,-0.05672320068981571,-0.026179938779914945,0.014180800172453928
2025-03-19 14:59:46.488679,0.09,0.08,0.19,-0.013089969389957472,-0.03381575425739013,0.008726646259971648
2025-03-19 14:59:46.548781,0.01,-0.03,0.08,-0.002181661564992912,-0.030543261909900768,0.01090830782496456
2025-03-19 14:59:46.607653,0.02,0.12,0.21,0.015271630954950384,-0.031634092692397225,0.011999138607461015
2025-03-19 14:59:46.666308,0.04,-0.07,0.08,0.04581489286485115,-0.013089969389957472,0.007635815477475192
2025-03-19 14:59:46.727488,-0.03,0.03,0.13,0.018544123302439753,-0.006544984694978736,0.004363323129985824
2025-03-19 14:59:46.788549,0.0,-0.07,0.06,0.04145156973486533,0.016362461737446838,-0.002181661564992912
2025-03-19 14:59:46.849083,0.03,0.02,0.09,0.037088246604879506,0.03381575425739013,-0.014180800172453928
2025-03-19 14:59:46.907699,0.0,-0.01,0.09,0.04145156973486533,0.05345070834232634,-0.02945243112740431
2025-03-19 14:59:46.966377,0.06,0.03,0.16,0.05235987755982989,0.06872233929727672,-0.04145156973486533
2025-03-19 14:59:47.026502,0.0,-0.02,0.05,0.04254240051736178,0.1265363707695889,-0.05672320068981571
2025-03-19 14:59:47.086674,-0.15,0.02,-0.01,0.022907446432425576,0.1308996938995747,-0.044724062082354694
2025-03-19 14:59:47.146843,0.02,0.02,0.17,-0.01090830782496456,0.13962634015954636,-0.030543261909900768
2025-03-19 14:59:47.205481,-0.03,0.02,0.01,-0.022907446432425576,0.15707963267948966,-0.028361600344907856
2025-03-19 14:59:47.264138,-0.05,0.12,0.13,0.017453292519943295,0.17016960206944712,-0.061086523819801536
2025-03-19 14:59:47.322749,0.06,0.03,0.17,0.07090400086226964,0.19198621771937624,-0.10144726277217041
2025-03-19 14:59:47.382681,-0.1,0.0,0.01,0.04254240051736178,0.16798794050445423,-0.09817477042468103
2025-03-19 14:59:47.442955,-0.14,0.06,0.09,0.03381575425739013,0.11562806294462433,-0.05345070834232634
2025-03-19 14:59:47.503293,0.12,0.09,0.26,0.08072147790473774,0.09381144729469522,-0.06217735460229799
2025-03-19 14:59:47.562094,1.44,-0.1,0.09,0.039269908169872414,0.11780972450961724,-0.11126473981463851
2025-03-19 14:59:47.620897,-0.01,0.06,0.14,0.007635815477475192,0.11999138607461016,-0.1341721862470641
2025-03-19 14:59:47.680648,-0.01,0.01,0.1,0.022907446432425576,0.13308135546456762,-0.1407171709420428
2025-03-19 14:59:47.740881,0.05,0.0,0.14,-0.016362461737446838,0.10581058590215622,-0.1308996938995747
2025-03-19 14:59:47.801318,0.03,0.02,0.22,-0.022907446432425576,0.05781403147231216,-0.09053895494720585
2025-03-19 14:59:47.860341,0.0,0.2,0.22,-0.037088246604879506,-0.019634954084936207,-0.02945243112740431
2025-03-19 14:59:47.920069,0.0,-0.07,0.11,-0.038179077387375956,-0.050178215994836975,0.025089107997418487
2025-03-19 14:59:47.979543,0.08,0.1,0.22,-0.028361600344907856,-0.061086523819801536,0.004363323129985824
2025-03-19 14:59:48.039670,-0.14,-0.05,-0.02,0.019634954084936207,-0.04363323129985824,-0.009817477042468103
2025-03-19 14:59:48.105727,-0.04,0.12,0.15,0.013089969389957472,-0.028361600344907856,0.016362461737446838
2025-03-19 14:59:48.164418,-0.07,0.03,0.1,0.00545415391248228,-0.0272707695624114,0.038179077387375956
2025-03-19 14:59:48.223128,-0.04,-0.02,0.1,0.02399827721492203,-0.013089969389957472,0.04908738521234052
2025-03-19 14:59:48.282867,-0.06,-0.01,0.13,0.0272707695624114,-0.008726646259971648,0.04581489286485115
2025-03-19 14:59:48.343588,0.0,-0.06,0.05,0.016362461737446838,-0.009817477042468103,0.05126904677733343
2025-03-19 14:59:48.403959,-0.02,-0.01,0.11,-0.02945243112740431,-0.006544984694978736,0.06326818538479445
2025-03-19 14:59:48.462722,0.0,0.04,0.17,-0.04581489286485115,-0.011999138607461015,0.07526732399225546
2025-03-19 14:59:48.521576,1.29,-0.04,0.13,-0.026179938779914945,-0.03490658503988659,0.06872233929727672
2025-03-19 14:59:48.580416,0.05,-0.02,0.15,-0.04908738521234052,-0.07308566242726255,0.055632369907319255
2025-03-19 14:59:48.640761,0.03,0.0,0.14,-0.03381575425739013,-0.12108221685710661,0.028361600344907856
2025-03-19 14:59:48.700964,-0.03,0.04,0.12,-0.007635815477475192,-0.11017390903214205,0.01090830782496456
2025-03-19 14:59:48.761320,-0.06,-0.04,0.0,-0.015271630954950384,-0.09272061651219876,-0.018544123302439753
2025-03-19 14:59:48.820300,-0.09,0.19,0.2,0.04145156973486533,-0.061086523819801536,-0.05235987755982989
2025-03-19 14:59:48.879319,-0.04,-0.14,-0.08,0.08944812416470939,-0.009817477042468103,-0.07417649320975901
2025-03-19 14:59:48.940038,-0.11,0.01,0.06,0.004363323129985824,0.014180800172453928,-0.07526732399225546
2025-03-19 14:59:49.000809,-0.13,0.07,0.06,0.05235987755982989,0.06872233929727672,-0.07635815477475191
2025-03-19 14:59:49.061308,-0.05,-0.01,0.14,0.03599741582238305,0.08617563181722002,-0.05781403147231216
2025-03-19 14:59:49.120259,-0.02,0.04,0.16,0.028361600344907856,0.08508480103472356,-0.037088246604879506
2025-03-19 14:59:49.179856,-0.02,0.0,0.12,0.014180800172453928,0.0818123086872342,-0.0272707695624114
2025-03-19 14:59:49.241067,-0.02,0.08,0.19,0.031634092692397225,0.06763150851478027,-0.022907446432425576
2025-03-19 14:59:49.301428,0.0,-0.1,0.05,0.02399827721492203,0.04690572364734761,-0.017453292519943295
2025-03-19 14:59:49.361913,-0.03,0.08,0.17,0.02399827721492203,0.032724923474893676,-0.009817477042468103
2025-03-19 14:59:49.421612,0.03,-0.01,0.11,-0.001090830782496456,0.006544984694978736,0.003272492347489368
2025-03-19 14:59:49.480186,-0.06,0.12,0.18,-0.013089969389957472,-0.0272707695624114,0.008726646259971648
2025-03-19 14:59:49.540509,-0.05,0.03,0.11,-0.017453292519943295,-0.04036073895236887,0.02399827721492203
2025-03-19 14:59:49.601444,-0.05,0.08,0.13,-0.016362461737446838,-0.04690572364734761,0.03381575425739013
2025-03-19 14:59:49.662758,-0.02,-0.04,0.05,0.001090830782496456,-0.04363323129985824,0.031634092692397225
2025-03-19 14:59:49.721458,-0.06,0.04,0.13,-0.025089107997418487,-0.028361600344907856,0.030543261909900768
2025-03-19 14:59:49.780063,-0.02,0.03,0.13,-0.018544123302439753,-0.020725784867432664,0.022907446432425576
2025-03-19 14:59:49.840634,-0.04,-0.05,0.06,0.004363323129985824,-0.008726646259971648,0.007635815477475192
2025-03-19 14:59:49.901141,-0.03,0.06,0.18,-0.007635815477475192,0.0,0.00545415391248228
2025-03-19 14:59:49.961422,-0.06,-0.04,0.11,0.003272492347489368,0.00545415391248228,-0.003272492347489368
2025-03-19 14:59:50.021480,0.0,0.04,0.17,-0.009817477042468103,0.004363323129985824,0.0
2025-03-19 14:59:50.082674,-0.11,0.06,0.14,0.002181661564992912,0.009817477042468103,-0.001090830782496456
2025-03-19 14:59:50.143219,-0.02,0.01,0.18,0.025089107997418487,0.02945243112740431,0.006544984694978736
2025-03-19 14:59:50.204399,0.06,-0.06,0.16,0.003272492347489368,0.022907446432425576,0.004363323129985824
2025-03-19 14:59:50.264685,-0.02,-0.01,0.12,0.0,-0.006544984694978736,-0.002181661564992912
2025-03-19 14:59:50.324133,-0.09,0.12,0.14,-0.020725784867432664,-0.025089107997418487,0.02181661564992912
2025-03-19 14:59:50.384105,-0.02,0.08,0.18,0.004363323129985824,-0.011999138607461015,0.04799655442984406
2025-03-19 14:59:50.444139,0.01,-0.08,0.12,-0.015271630954950384,-0.014180800172453928,0.04908738521234052
2025-03-19 14:59:50.504381,0.01,0.02,0.18,0.0,-0.026179938779914945,0.013089969389957472
2025-03-19 14:59:50.564699,-0.08,0.0,0.11,-0.007635815477475192,-0.025089107997418487,-0.011999138607461015
2025-03-19 14:59:50.624773,-0.04,0.07,0.14,0.001090830782496456,-0.01090830782496456,0.0
2025-03-19 14:59:50.686139,-0.04,0.03,0.15,-0.006544984694978736,-0.002181661564992912,0.015271630954950384
2025-03-19 14:59:50.746260,0.0,0.02,0.17,-0.013089969389957472,-0.009817477042468103,0.031634092692397225
2025-03-19 14:59:50.806555,-0.02,0.0,0.11,-0.016362461737446838,-0.018544123302439753,0.032724923474893676
2025-03-19 14:59:50.867076,0.0,0.06,0.16,-0.018544123302439753,-0.028361600344907856,0.0272707695624114
2025-03-19 14:59:50.926091,-0.05,0.06,0.15,0.009817477042468103,-0.019634954084936207,0.011999138607461015
2025-03-19 14:59:50.986495,-0.01,0.01,0.12,-0.002181661564992912,-0.015271630954950384,0.016362461737446838
2025-03-19 14:59:51.046649,-0.03,0.06,0.17,0.004363323129985824,0.002181661564992912,0.026179938779914945
2025-03-19 14:59:51.107861,-0.06,-0.02,0.04,-0.030543261909900768,0.002181661564992912,0.032724923474893676
2025-03-19 14:59:51.168397,0.0,0.08,0.21,-0.013089969389957472,0.00545415391248228,0.01090830782496456
2025-03-19 14:59:51.227744,-0.04,-0.06,0.08,-0.002181661564992912,0.014180800172453928,-0.003272492347489368
2025-03-19 14:59:51.286453,0.0,0.03,0.16,-0.025089107997418487,0.025089107997418487,-0.01090830782496456
2025-03-19 14:59:51.346895,-0.01,-0.03,0.14,-0.018544123302439753,0.020725784867432664,-0.014180800172453928
2025-03-19 14:59:51.407363,-0.02,0.12,0.21,-0.030543261909900768,0.00545415391248228,-0.002181661564992912
2025-03-19 14:59:51.467565,0.0,0.03,0.15,0.0,-0.001090830782496456,0.007635815477475192
2025-03-19 14:59:51.527531,0.0,0.06,0.2,-0.020725784867432664,-0.019634954084936207,0.020725784867432664
2025-03-19 14:59:51.587286,0.0,-0.04,0.12,-0.022907446432425576,-0.039269908169872414,0.019634954084936207
2025-03-19 14:59:51.647006,-0.05,0.09,0.2,-0.028361600344907856,-0.04145156973486533,0.019634954084936207
2025-03-19 14:59:51.707211,-0.07,0.02,0.12,0.001090830782496456,-0.031634092692397225,0.020725784867432664
2025-03-19 14:59:51.767522,-0.01,0.02,0.11,-0.006544984694978736,-0.009817477042468103,0.014180800172453928
2025-03-19 14:59:51.828052,-0.02,0.0,0.11,-0.006544984694978736,-0.001090830782496456,0.004363323129985824
2025-03-19 14:59:51.887309,0.01,0.0,0.12,-0.014180800172453928,0.006544984694978736,-0.002181661564992912
2025-03-19 14:59:51.947746,-0.04,0.03,0.16,-0.003272492347489368,0.003272492347489368,-0.006544984694978736
2025-03-19 14:59:52.008213,-0.08,0.06,0.15,0.013089969389957472,0.01090830782496456,0.003272492347489368
2025-03-19 14:59:52.068227,0.01,-0.01,0.12,-0.003272492347489368,0.003272492347489368,0.017453292519943295
2025-03-19 14:59:52.128734,0.02,0.0,0.21,0.007635815477475192,-0.007635815477475192,0.011999138607461015
2025-03-19 14:59:52.188009,-0.06,-0.01,0.12,-0.009817477042468103,-0.011999138607461015,0.008726646259971648
2025-03-19 14:59:52.248489,0.0,0.01,0.15,-0.00545415391248228,-0.00545415391248228,0.007635815477475192
2025-03-19 14:59:52.309099,-0.02,0.0,0.14,0.003272492347489368,-0.003272492347489368,0.003272492347489368
2025-03-19 14:59:52.369671,-0.02,0.0,0.12,-0.00545415391248228,-0.00545415391248228,0.001090830782496456
2025-03-19 14:59:52.430265,-0.04,0.01,0.17,0.003272492347489368,0.00545415391248228,0.0
2025-03-19 14:59:52.489649,0.0,-0.01,0.13,-0.008726646259971648,0.001090830782496456,0.00545415391248228
2025-03-19 14:59:52.550056,-0.02,0.03,0.18,-0.016362461737446838,-0.006544984694978736,0.008726646259971648
2025-03-19 14:59:52.610397,-0.01,0.0,0.13,-0.007635815477475192,-0.008726646259971648,0.003272492347489368
2025-03-19 14:59:52.670775,-0.03,-0.01,0.11,-0.02399827721492203,-0.009817477042468103,0.004363323129985824
2025-03-19 14:59:52.731155,-0.02,0.02,0.16,-0.01090830782496456,-0.011999138607461015,0.002181661564992912
2025-03-19 14:59:52.790426,0.0,0.01,0.14,-0.009817477042468103,-0.011999138607461015,0.008726646259971648
2025-03-19 14:59:52.850697,-0.02,0.0,0.2,-0.008726646259971648,-0.015271630954950384,0.011999138607461015
2025-03-19 14:59:52.911692,-0.02,-0.01,0.13,0.0,-0.011999138607461015,0.007635815477475192
2025-03-19 14:59:52.973095,-0.05,0.0,0.12,0.0,-0.003272492347489368,0.004363323129985824
2025-03-19 14:59:53.033857,-0.03,0.02,0.15,0.004363323129985824,0.00545415391248228,-0.001090830782496456
2025-03-19 14:59:53.093053,-0.02,-0.02,0.11,0.001090830782496456,0.008726646259971648,-0.004363323129985824
2025-03-19 14:59:53.153343,-0.01,0.03,0.18,0.002181661564992912,0.0,-0.002181661564992912
2025-03-19 14:59:53.214019,0.0,0.03,0.2,0.002181661564992912,0.0,0.004363323129985824
2025-03-19 14:59:53.274642,-0.02,0.0,0.14,-0.007635815477475192,-0.01090830782496456,0.006544984694978736
2025-03-19 14:59:53.335584,-0.02,0.0,0.14,-0.002181661564992912,-0.007635815477475192,0.006544984694978736
2025-03-19 14:59:53.394765,-0.02,0.03,0.18,-0.003272492347489368,-0.01090830782496456,0.001090830782496456
2025-03-19 14:59:53.456291,-0.03,0.01,0.15,-0.002181661564992912,-0.004363323129985824,0.003272492347489368
2025-03-19 14:59:53.517736,-0.02,0.03,0.18,0.001090830782496456,-0.001090830782496456,0.003272492347489368
2025-03-19 14:59:53.577884,-0.03,0.0,0.17,0.002181661564992912,-0.003272492347489368,0.00545415391248228
2025-03-19 14:59:53.638416,0.0,0.02,0.21,-0.008726646259971648,-0.006544984694978736,0.007635815477475192
2025-03-19 14:59:53.697497,0.0,-0.02,0.16,-0.003272492347489368,-0.015271630954950384,-0.002181661564992912
2025-03-19 14:59:53.758678,-0.03,0.04,0.18,-0.009817477042468103,-0.016362461737446838,0.002181661564992912
2025-03-19 14:59:53.819879,-0.04,0.01,0.16,0.001090830782496456,0.0,0.006544984694978736
2025-03-19 14:59:53.880094,-0.02,0.0,0.15,0.011999138607461015,0.002181661564992912,0.006544984694978736
2025-03-19 14:59:53.940369,0.0,0.0,0.17,0.019634954084936207,0.007635815477475192,0.0
2025-03-19 14:59:53.999714,-0.01,-0.02,0.18,0.008726646259971648,-0.002181661564992912,-0.003272492347489368
2025-03-19 14:59:54.060123,0.0,0.01,0.16,-0.002181661564992912,-0.006544984694978736,0.0
2025-03-19 14:59:54.120701,-0.07,0.0,0.17,0.003272492347489368,-0.00545415391248228,0.0
2025-03-19 14:59:54.181530,-0.03,0.0,0.14,0.003272492347489368,-0.003272492347489368,-0.002181661564992912
2025-03-19 14:59:54.242688,-0.05,0.03,0.17,-0.002181661564992912,0.001090830782496456,0.006544984694978736
2025-03-19 14:59:54.301943,0.0,0.02,0.18,0.002181661564992912,-0.007635815477475192,0.017453292519943295
2025-03-19 14:59:54.362327,0.0,0.04,0.17,0.004363323129985824,-0.019634954084936207,0.015271630954950384
2025-03-19 14:59:54.423161,0.02,-0.03,0.12,-0.008726646259971648,-0.031634092692397225,0.009817477042468103
2025-03-19 14:59:54.483890,-0.04,0.01,0.14,-0.014180800172453928,-0.03490658503988659,0.002181661564992912
2025-03-19 14:59:54.545088,-0.03,0.0,0.15,-0.004363323129985824,-0.02181661564992912,0.004363323129985824
2025-03-19 14:59:54.604636,-0.05,0.02,0.15,-0.004363323129985824,-0.017453292519943295,0.007635815477475192
2025-03-19 14:59:54.664978,-0.02,0.0,0.18,-0.014180800172453928,-0.009817477042468103,0.004363323129985824
2025-03-19 14:59:54.725216,-0.02,0.0,0.14,-0.001090830782496456,-0.003272492347489368,0.002181661564992912
2025-03-19 14:59:54.785435,0.0,0.0,0.15,-0.011999138607461015,-0.003272492347489368,0.003272492347489368
2025-03-19 14:59:54.845971,0.01,0.0,0.17,-0.001090830782496456,-0.007635815477475192,0.003272492347489368
2025-03-19 14:59:54.905515,0.0,-0.03,0.1,-0.003272492347489368,-0.001090830782496456,-0.01090830782496456
2025-03-19 14:59:54.966700,-0.07,0.03,0.14,-0.004363323129985824,0.001090830782496456,-0.003272492347489368
2025-03-19 14:59:55.027253,0.0,0.01,0.17,0.001090830782496456,0.007635815477475192,0.003272492347489368
2025-03-19 14:59:55.087681,-0.01,0.02,0.16,0.004363323129985824,0.01090830782496456,0.004363323129985824
2025-03-19 14:59:55.147904,-0.01,0.0,0.12,0.006544984694978736,0.002181661564992912,0.006544984694978736
2025-03-19 14:59:55.207864,0.01,0.03,0.21,0.003272492347489368,0.004363323129985824,-0.013089969389957472
2025-03-19 14:59:55.269177,-0.07,0.02,0.15,-0.001090830782496456,0.007635815477475192,-0.004363323129985824
2025-03-19 14:59:55.329605,0.0,0.0,0.18,0.001090830782496456,0.009817477042468103,0.007635815477475192
2025-03-19 14:59:55.389710,-0.03,0.02,0.17,0.001090830782496456,0.001090830782496456,0.001090830782496456
2025-03-19 14:59:55.449839,-0.01,0.01,0.22,0.003272492347489368,0.001090830782496456,0.00545415391248228
2025-03-19 14:59:55.509716,0.01,0.0,0.17,0.002181661564992912,-0.001090830782496456,-0.002181661564992912
2025-03-19 14:59:55.569569,-0.05,0.03,0.1,0.02399827721492203,0.0,-0.003272492347489368
2025-03-19 14:59:55.629907,0.03,-0.03,0.17,0.006544984694978736,0.011999138607461015,-0.001090830782496456
2025-03-19 14:59:55.690281,-0.07,0.05,0.16,0.007635815477475192,0.015271630954950384,-0.00545415391248228
2025-03-19 14:59:55.750663,0.07,-0.01,0.21,-0.002181661564992912,-0.001090830782496456,0.0
2025-03-19 14:59:55.810032,-0.06,0.05,0.2,-0.016362461737446838,-0.006544984694978736,-0.00545415391248228
2025-03-19 14:59:55.868754,0.01,0.02,0.18,-0.020725784867432664,-0.030543261909900768,0.019634954084936207
2025-03-19 14:59:55.929346,0.03,0.09,0.24,-0.009817477042468103,-0.02945243112740431,0.017453292519943295
2025-03-19 14:59:55.990373,-0.1,0.0,0.11,-0.02399827721492203,-0.02945243112740431,0.017453292519943295
2025-03-19 14:59:56.050773,0.05,0.02,0.22,-0.028361600344907856,-0.031634092692397225,0.020725784867432664
2025-03-19 14:59:56.109589,-0.03,0.01,0.16,-0.020725784867432664,-0.030543261909900768,0.006544984694978736
2025-03-19 14:59:56.168156,-0.01,0.03,0.16,-0.028361600344907856,-0.031634092692397225,0.008726646259971648
2025-03-19 14:59:56.229161,-0.03,0.0,0.17,-0.007635815477475192,-0.026179938779914945,0.01090830782496456
2025-03-19 14:59:56.290292,-0.03,0.0,0.11,-0.018544123302439753,-0.017453292519943295,0.015271630954950384
2025-03-19 14:59:56.350922,0.0,0.0,0.16,-0.008726646259971648,-0.003272492347489368,0.003272492347489368
2025-03-19 14:59:56.410268,-0.12,0.02,0.13,0.003272492347489368,0.011999138607461015,-0.009817477042468103
2025-03-19 14:59:56.468857,-0.01,0.04,0.18,-0.001090830782496456,0.02945243112740431,-0.002181661564992912
2025-03-19 14:59:56.529721,0.0,0.02,0.15,0.004363323129985824,0.0272707695624114,0.0
2025-03-19 14:59:56.592270,0.0,0.0,0.15,0.001090830782496456,0.017453292519943295,0.0
2025-03-19 14:59:56.653032,-0.02,0.01,0.13,0.001090830782496456,0.008726646259971648,-0.001090830782496456
2025-03-19 14:59:56.712432,-0.01,0.0,0.13,-0.007635815477475192,-0.002181661564992912,0.001090830782496456
2025-03-19 14:59:56.773125,0.0,0.03,0.21,-0.015271630954950384,-0.016362461737446838,0.011999138607461015
2025-03-19 14:59:56.833970,0.0,0.01,0.16,-0.015271630954950384,-0.02945243112740431,0.017453292519943295
2025-03-19 14:59:56.895026,-0.02,0.0,0.13,-0.020725784867432664,-0.037088246604879506,0.020725784867432664
2025-03-19 14:59:56.955645,0.01,0.03,0.16,-0.031634092692397225,-0.050178215994836975,0.022907446432425576
2025-03-19 14:59:57.014495,-0.07,0.02,0.2,-0.009817477042468103,-0.039269908169872414,0.013089969389957472
2025-03-19 14:59:57.075160,-0.08,0.01,0.1,-0.008726646259971648,-0.006544984694978736,0.003272492347489368
2025-03-19 14:59:57.135466,-0.1,0.05,0.17,0.13962634015954636,0.019634954084936207,-0.007635815477475192
2025-03-19 14:59:57.195863,0.03,0.0,0.12,0.014180800172453928,0.032724923474893676,-0.013089969389957472
2025-03-19 14:59:57.256372,0.01,0.05,0.21,-0.002181661564992912,0.016362461737446838,0.003272492347489368
2025-03-19 14:59:57.315863,0.0,0.01,0.18,-0.004363323129985824,-0.017453292519943295,0.017453292519943295
2025-03-19 14:59:57.375262,0.05,0.01,0.19,-0.013089969389957472,-0.039269908169872414,0.019634954084936207
2025-03-19 14:59:57.436010,-0.06,0.05,0.13,-0.017453292519943295,-0.04690572364734761,0.017453292519943295
2025-03-19 14:59:57.496501,-0.03,0.04,0.11,-0.00545415391248228,-0.031634092692397225,0.00545415391248228
2025-03-19 14:59:57.557232,-0.08,0.02,0.11,0.001090830782496456,-0.002181661564992912,-0.001090830782496456
2025-03-19 14:59:57.615796,-0.03,0.05,0.18,0.0,0.020725784867432664,-0.007635815477475192
2025-03-19 14:59:57.674652,-0.04,0.06,0.17,0.013089969389957472,0.0272707695624114,-0.007635815477475192
2025-03-19 14:59:57.733343,-0.01,0.02,0.12,0.016362461737446838,0.028361600344907856,-0.003272492347489368
2025-03-19 14:59:57.794646,0.0,0.05,0.2,0.007635815477475192,0.016362461737446838,-0.004363323129985824
2025-03-19 14:59:57.855664,-0.05,0.01,0.09,0.004363323129985824,0.00545415391248228,-0.003272492347489368
2025-03-19 14:59:57.915251,-0.01,0.09,0.16,0.011999138607461015,0.006544984694978736,0.001090830782496456
2025-03-19 14:59:57.975540,-0.01,0.0,0.13,0.00545415391248228,0.00545415391248228,0.001090830782496456
2025-03-19 14:59:58.036062,-0.04,0.05,0.19,0.013089969389957472,0.007635815477475192,-0.001090830782496456
2025-03-19 14:59:58.096089,-0.01,0.0,0.14,-0.011999138607461015,0.004363323129985824,0.0
2025-03-19 14:59:58.156350,-0.03,0.04,0.18,0.006544984694978736,0.00545415391248228,0.003272492347489368
2025-03-19 14:59:58.217067,0.0,0.03,0.18,-0.004363323129985824,0.001090830782496456,0.001090830782496456
2025-03-19 14:59:58.278187,-0.03,0.02,0.14,-0.001090830782496456,-0.004363323129985824,0.001090830782496456
2025-03-19 14:59:58.338344,-0.03,0.04,0.17,-0.003272492347489368,-0.007635815477475192,0.002181661564992912
2025-03-19 14:59:58.398698,-0.02,0.03,0.12,-0.004363323129985824,-0.013089969389957472,0.006544984694978736
2025-03-19 14:59:58.458984,0.02,0.03,0.18,-0.02399827721492203,-0.030543261909900768,0.016362461737446838
2025-03-19 14:59:58.518525,0.05,0.01,0.21,-0.05126904677733343,-0.06654067773228381,0.028361600344907856
2025-03-19 14:59:58.577258,-0.01,0.11,0.2,-0.04363323129985824,-0.08835729338221293,0.03381575425739013
2025-03-19 14:59:58.636480,0.0,0.01,0.12,-0.038179077387375956,-0.0818123086872342,0.031634092692397225
2025-03-19 14:59:58.698398,-0.08,0.07,0.14,-0.03381575425739013,-0.055632369907319255,0.022907446432425576
2025-03-19 14:59:58.758498,-0.06,0.06,0.15,0.0,-0.02399827721492203,0.011999138607461015
2025-03-19 14:59:58.818877,-0.01,0.0,0.12,-0.00545415391248228,-0.01090830782496456,0.00545415391248228
2025-03-19 14:59:58.878470,-0.03,0.05,0.16,0.003272492347489368,-0.003272492347489368,-0.002181661564992912
2025-03-19 14:59:58.938799,0.0,0.03,0.18,0.003272492347489368,0.008726646259971648,-0.007635815477475192
2025-03-19 14:59:58.998998,-0.02,0.05,0.15,0.02181661564992912,0.015271630954950384,-0.006544984694978736
2025-03-19 14:59:59.059871,1.28,0.03,0.14,0.006544984694978736,0.017453292519943295,-0.007635815477475192
2025-03-19 14:59:59.121029,-0.03,0.06,0.14,0.008726646259971648,0.018544123302439753,-0.007635815477475192
2025-03-19 14:59:59.180554,0.0,0.06,0.15,0.007635815477475192,0.020725784867432664,-0.00545415391248228
2025-03-19 14:59:59.240898,-0.05,0.06,0.16,0.017453292519943295,0.018544123302439753,-0.003272492347489368
2025-03-19 14:59:59.300886,0.0,0.04,0.17,0.004363323129985824,0.019634954084936207,0.002181661564992912
2025-03-19 14:59:59.361486,-0.02,0.04,0.13,0.008726646259971648,0.015271630954950384,0.0
2025-03-19 14:59:59.422768,0.0,0.05,0.2,0.001090830782496456,0.00545415391248228,-0.001090830782496456
2025-03-19 14:59:59.482475,0.0,0.03,0.16,-0.01090830782496456,-0.009817477042468103,0.003272492347489368
2025-03-19 14:59:59.542678,-0.02,0.04,0.15,-0.013089969389957472,-0.02181661564992912,0.008726646259971648
2025-03-19 14:59:59.603522,-0.05,0.04,0.14,-0.006544984694978736,-0.013089969389957472,0.011999138607461015
2025-03-19 14:59:59.665416,-0.02,0.03,0.16,-0.007635815477475192,-0.004363323129985824,0.008726646259971648
2025-03-19 14:59:59.725578,-0.01,0.02,0.12,0.001090830782496456,0.001090830782496456,0.002181661564992912
2025-03-19 14:59:59.786133,-0.04,0.05,0.14,0.001090830782496456,0.007635815477475192,-0.001090830782496456
2025-03-19 14:59:59.846184,-0.02,0.03,0.14,-0.001090830782496456,0.00545415391248228,0.0
2025-03-19 14:59:59.906815,-0.02,0.06,0.16,0.007635815477475192,0.013089969389957472,0.0
2025-03-19 14:59:59.967048,0.01,0.02,0.18,-0.002181661564992912,0.007635815477475192,0.0
2025-03-19 15:00:00.026684,0.0,0.03,0.18,-0.006544984694978736,-0.007635815477475192,0.001090830782496456
2025-03-19 15:00:00.087742,0.02,0.03,0.17,-0.016362461737446838,-0.013089969389957472,0.003272492347489368
2025-03-19 15:00:00.149337,-0.02,0.04,0.2,-0.011999138607461015,-0.02181661564992912,0.009817477042468103
2025-03-19 15:00:00.209355,0.0,0.05,0.22,-0.016362461737446838,-0.0272707695624114,0.011999138607461015
2025-03-19 15:00:00.269265,-0.03,0.02,0.14,-0.011999138607461015,-0.026179938779914945,0.014180800172453928
2025-03-19 15:00:00.328862,0.0,0.03,0.17,-0.011999138607461015,-0.016362461737446838,0.00545415391248228
2025-03-19 15:00:00.390176,-0.03,0.04,0.17,-0.01090830782496456,-0.00545415391248228,0.003272492347489368
2025-03-19 15:00:00.451081,-0.01,0.04,0.17,-0.016362461737446838,-0.011999138607461015,0.007635815477475192
2025-03-19 15:00:00.511045,-0.03,0.02,0.15,-0.009817477042468103,-0.01090830782496456,0.006544984694978736
2025-03-19 15:00:00.571145,-0.04,0.02,0.11,-0.008726646259971648,-0.007635815477475192,0.009817477042468103
2025-03-19 15:00:00.630701,0.0,0.03,0.17,-0.011999138607461015,-0.01090830782496456,0.01090830782496456
2025-03-19 15:00:00.690790,0.02,0.02,0.18,-0.00545415391248228,-0.01090830782496456,0.002181661564992912
2025-03-19 15:00:00.751327,-0.05,0.04,0.15,0.001090830782496456,-0.007635815477475192,-0.004363323129985824
2025-03-19 15:00:00.814379,-0.06,0.04,0.15,0.009817477042468103,0.00545415391248228,-0.003272492347489368
2025-03-19 15:00:00.875736,0.0,0.04,0.17,0.008726646259971648,0.016362461737446838,-0.004363323129985824
2025-03-19 15:00:00.934468,0.0,0.0,0.18,0.013089969389957472,0.016362461737446838,-0.007635815477475192
2025-03-19 15:00:00.994742,0.0,0.02,0.16,-0.003272492347489368,0.011999138607461015,-0.007635815477475192
2025-03-19 15:00:01.054853,0.01,0.05,0.18,-0.009817477042468103,-0.011999138607461015,0.003272492347489368
2025-03-19 15:00:01.115207,-0.03,0.04,0.14,-0.009817477042468103,-0.018544123302439753,0.01090830782496456
2025-03-19 15:00:01.175700,0.0,0.02,0.12,-0.015271630954950384,-0.019634954084936207,0.016362461737446838
2025-03-19 15:00:01.235316,-0.02,0.03,0.13,-0.009817477042468103,-0.019634954084936207,0.006544984694978736
2025-03-19 15:00:01.296924,-0.01,0.04,0.14,-0.007635815477475192,-0.009817477042468103,0.003272492347489368
2025-03-19 15:00:01.357252,-0.03,0.05,0.17,0.0,0.0,-0.001090830782496456
2025-03-19 15:00:01.417625,0.0,0.04,0.14,0.003272492347489368,0.007635815477475192,-0.003272492347489368
2025-03-19 15:00:01.477844,-0.04,0.05,0.17,0.00545415391248228,0.009817477042468103,-0.001090830782496456
2025-03-19 15:00:01.536796,0.03,0.03,0.2,-0.006544984694978736,0.004363323129985824,0.008726646259971648
2025-03-19 15:00:01.596342,-0.02,0.03,0.17,-0.002181661564992912,-0.011999138607461015,0.008726646259971648
2025-03-19 15:00:01.656659,-0.01,0.03,0.16,-0.006544984694978736,-0.015271630954950384,0.00545415391248228
2025-03-19 15:00:01.716540,-0.01,0.07,0.23,-0.002181661564992912,-0.017453292519943295,0.009817477042468103
2025-03-19 15:00:01.777782,0.0,0.01,0.15,-0.014180800172453928,-0.025089107997418487,0.017453292519943295
2025-03-19 15:00:01.838243,0.0,0.0,0.14,-0.020725784867432664,-0.032724923474893676,-0.00545415391248228
2025-03-19 15:00:01.898751,-0.09,0.05,0.17,-0.011999138607461015,-0.014180800172453928,-0.013089969389957472
2025-03-19 15:00:01.959079,-0.07,0.06,0.18,0.006544984694978736,0.018544123302439753,-0.01090830782496456
2025-03-19 15:00:02.019023,0.0,0.03,0.13,0.019634954084936207,0.04254240051736178,-0.003272492347489368
2025-03-19 15:00:02.079871,-0.02,0.05,0.18,0.02399827721492203,0.055632369907319255,-0.013089969389957472
2025-03-19 15:00:02.139912,0.0,0.0,0.15,0.03381575425739013,0.05345070834232634,-0.028361600344907856
2025-03-19 15:00:02.198738,-0.02,0.0,0.13,0.011999138607461015,0.04799655442984406,-0.026179938779914945
2025-03-19 15:00:02.257400,-0.05,0.03,0.19,0.008726646259971648,0.039269908169872414,-0.016362461737446838
2025-03-19 15:00:02.317491,-0.01,0.03,0.19,0.003272492347489368,0.022907446432425576,-0.001090830782496456
2025-03-19 15:00:02.378458,0.0,0.01,0.14,-0.02181661564992912,0.00545415391248228,0.008726646259971648
2025-03-19 15:00:02.439710,0.0,0.02,0.2,0.003272492347489368,-0.002181661564992912,0.0
2025-03-19 15:00:02.499474,-0.08,0.04,0.19,-0.003272492347489368,0.003272492347489368,-0.004363323129985824
2025-03-19 15:00:02.558070,-0.07,0.02,0.13,0.007635815477475192,0.02399827721492203,0.013089969389957472
2025-03-19 15:00:02.618255,0.0,-0.08,0.01,-0.013089969389957472,0.044724062082354694,-0.00545415391248228
2025-03-19 15:00:02.678521,-0.11,0.1,0.14,-0.028361600344907856,0.08835729338221293,-0.04145156973486533
2025-03-19 15:00:02.739075,-0.12,0.01,0.09,-0.002181661564992912,0.136353847812057,-0.061086523819801536
2025-03-19 15:00:02.798872,-0.08,-0.02,0.11,0.011999138607461015,0.17889624832941878,-0.06326818538479445
2025-03-19 15:00:02.858796,-0.02,-0.02,0.14,-0.00545415391248228,0.19853120241435498,-0.06544984694978735
2025-03-19 15:00:02.919596,-0.11,0.0,0.16,-0.08617563181722002,0.19853120241435498,-0.04799655442984406
2025-03-19 15:00:02.980754,-0.08,-0.1,0.04,-0.11235557059713497,0.20507618710933373,-0.05345070834232634
2025-03-19 15:00:03.041570,-0.07,0.03,0.21,-0.06544984694978735,0.21707532571679475,-0.06872233929727672
2025-03-19 15:00:03.100974,-0.12,0.05,0.23,-0.06763150851478027,0.23125612588924865,-0.07526732399225546
2025-03-19 15:00:03.161794,-0.07,0.09,0.25,-0.04581489286485115,0.20943951023931956,-0.06326818538479445
2025-03-19 15:00:03.222158,-0.06,0.04,0.29,0.04254240051736178,0.14508049407202864,-0.016362461737446838
2025-03-19 15:00:03.282532,-0.04,0.17,0.37,0.020725784867432664,0.06217735460229799,0.05781403147231216
2025-03-19 15:00:03.342974,-0.11,0.05,0.22,0.04036073895236887,-0.009817477042468103,0.09926560120717749
2025-03-19 15:00:03.401536,-0.03,-0.02,0.14,-0.015271630954950384,-0.030543261909900768,0.11999138607461016
2025-03-19 15:00:03.460256,-0.1,-0.11,0.12,-0.016362461737446838,-0.05781403147231216,0.09381144729469522
2025-03-19 15:00:03.520720,-0.21,-0.09,0.0,0.009817477042468103,-0.037088246604879506,0.05672320068981571
2025-03-19 15:00:03.581244,-0.04,-0.07,0.0,0.03490658503988659,0.04908738521234052,-0.004363323129985824
2025-03-19 15:00:03.642092,0.9500000000000001,0.31,0.77,0.12762720155208535,0.1810779098944117,-0.044724062082354694
2025-03-19 15:00:03.700707,1.56,2.49,2.21,0.4494222823885399,0.5170537909033202,-0.11453723216212788
2025-03-19 15:00:03.759418,0.11,4.45,-3.0700000000000003,0.755945732270044,0.34470252726888007,-0.433059820651093
2025-03-19 15:00:03.820088,-1.32,1.24,-0.36,0.2203478180642841,0.17235126363444003,-1.1497356447512646
2025-03-19 15:00:03.880714,-2.72,-2.8000000000000003,0.01,0.40033489717619936,0.02945243112740431,-1.1420998292737894
2025-03-19 15:00:03.941332,-2.13,-9.540000000000001,3.2,0.08072147790473774,0.136353847812057,-0.2585268954516601
2025-03-19 15:00:04.000194,3.5100000000000002,-2.37,1.18,0.06544984694978735,-0.031634092692397225,-0.09381144729469522
2025-03-19 15:00:04.058998,0.15,1.67,0.91,0.3141592653589793,-0.1090830782496456,-0.11671889372712078
2025-03-19 15:00:04.118778,-1.8800000000000001,1.1,-3.48,0.46796640569097964,0.06435901616729091,-0.09053895494720585
2025-03-19 15:00:04.180343,-2.82,2.67,0.51,0.08290313946973066,-0.22362031041177347,-0.05781403147231216
2025-03-19 15:00:04.241080,0.2,0.38,0.41000000000000003,0.16144295580947549,-0.29888763440402893,0.15817046346198613
2025-03-19 15:00:04.300777,-0.17,0.21,0.23,-0.25634523388666713,-0.09599310885968812,0.20725784867432664
2025-03-19 15:00:04.359481,-0.24,0.42,0.3,-0.019634954084936207,0.008726646259971648,0.28034351110158917
2025-03-19 15:00:04.418420,-0.3,0.17,-0.03,-0.22580197197676638,0.15926129424448257,0.4232423436086249
2025-03-19 15:00:04.478900,-0.13,0.34,0.18,-0.2203478180642841,0.2378011105842274,0.5290529295107811
2025-03-19 15:00:04.540312,-0.24,0.27,-0.1,-0.18762289458939044,0.28907015736156083,0.5857761302005968
2025-03-19 15:00:04.601404,-0.29,0.29,0.33,-0.14835298641951802,0.37306412761378793,0.6283185307179586
2025-03-19 15:00:04.660326,-0.28,-0.24,0.22,-0.12435470920459599,0.33161255787892263,0.5290529295107811
2025-03-19 15:00:04.719166,-0.63,0.31,-0.02,-0.030543261909900768,0.346884188833873,0.358883327441334
2025-03-19 15:00:04.779816,-0.35000000000000003,-0.01,-0.13,0.07526732399225546,0.35452000431134817,0.18216874067690814
2025-03-19 15:00:04.840420,0.05,-0.11,0.3,-0.009817477042468103,0.3021601267515183,-0.013089969389957472
2025-03-19 15:00:04.900752,0.0,-0.26,0.18,-0.11344640137963143,0.22143864884678055,-0.0545415391248228
2025-03-19 15:00:04.960336,-0.31,0.32,0.15,-0.2007128639793479,0.2628902185816459,-0.007635815477475192
2025-03-19 15:00:05.020966,-0.32,0.13,0.23,-0.13744467859455345,0.3174317577064687,0.1341721862470641
2025-03-19 15:00:05.081097,-0.43,0.0,0.02,-0.09490227807719166,0.29561514205653955,0.16253378659197193
2025-03-19 15:00:05.141826,-0.28,0.27,0.22,-0.019634954084936207,0.2781618495365963,0.2378011105842274
2025-03-19 15:00:05.202423,-0.27,0.2,0.15,-0.07853981633974483,0.27052603405912107,0.2650718801466388
2025-03-19 15:00:05.261358,-0.08,-0.22,0.05,-0.002181661564992912,0.21707532571679475,0.23343778745424157
2025-03-19 15:00:05.320200,-0.38,0.39,-0.02,0.03490658503988659,0.3043417883165112,0.05672320068981571
2025-03-19 15:00:05.381033,-0.42,0.2,0.26,0.2378011105842274,0.22471114119426994,-0.04799655442984406
2025-03-19 15:00:05.441711,-0.1,-0.05,-0.08,0.2912518189265537,0.1810779098944117,-0.030543261909900768
2025-03-19 15:00:05.502417,-0.36,0.3,0.23,0.4374231437810788,0.16907877128695067,0.02399827721492203
2025-03-19 15:00:05.561070,-0.32,0.11,0.37,0.1461713248545251,0.1265363707695889,0.06872233929727672
2025-03-19 15:00:05.619751,-0.31,0.02,0.1,-0.02181661564992912,0.06981317007977318,0.07853981633974483
2025-03-19 15:00:05.678568,-0.5,0.12,0.08,-0.10799224746714914,0.03599741582238305,0.03490658503988659
2025-03-19 15:00:05.738893,-0.36,0.0,0.25,-0.12871803233458182,-0.014180800172453928,0.02945243112740431
2025-03-19 15:00:05.799022,-0.3,0.0,0.23,-0.23671027980173096,-0.07635815477475191,0.03490658503988659
2025-03-19 15:00:05.859084,-0.32,0.27,0.23,-0.2476185876266955,-0.0916297857297023,0.016362461737446838
2025-03-19 15:00:05.917902,-0.29,0.02,-0.08,-0.07963064712224129,-0.1265363707695889,0.011999138607461015
2025-03-19 15:00:05.976740,-0.3,-0.01,0.02,-0.001090830782496456,-0.09926560120717749,0.013089969389957472
2025-03-19 15:00:06.036802,-0.3,-0.03,0.08,0.008726646259971648,-0.1090830782496456,0.037088246604879506
2025-03-19 15:00:06.096998,-0.28,0.02,0.04,-0.06326818538479445,-0.11126473981463851,0.02399827721492203
2025-03-19 15:00:06.157846,-0.28,0.18,0.11,-0.06326818538479445,-0.08835729338221293,0.04799655442984406
2025-03-19 15:00:06.216673,-0.3,0.13,0.1,-0.05999569303730508,-0.06872233929727672,0.10362892433716332
2025-03-19 15:00:06.275508,-0.25,0.06,0.11,-0.02399827721492203,-0.07744898555724837,0.12326387842209953
2025-03-19 15:00:06.335428,-0.25,0.03,-0.01,-0.04363323129985824,-0.06217735460229799,0.14180800172453928
2025-03-19 15:00:06.395880,-0.28,0.11,0.06,-0.07090400086226964,-0.037088246604879506,0.18216874067690814
2025-03-19 15:00:06.456328,-0.26,0.01,0.1,-0.05235987755982989,-0.009817477042468103,0.19744037163185854
2025-03-19 15:00:06.514998,-0.3,-0.1,0.01,-0.06654067773228381,-0.007635815477475192,0.20180369476184434
2025-03-19 15:00:06.573801,-0.23,0.13,0.1,-0.12108221685710661,0.017453292519943295,0.19198621771937624
2025-03-19 15:00:06.632708,-0.23,-0.06,0.08,-0.10690141668465268,0.004363323129985824,0.1538071403320003
2025-03-19 15:00:06.692574,-0.22,0.07,0.04,-0.09817477042468103,0.018544123302439753,0.12326387842209953
2025-03-19 15:00:06.752764,-0.16,0.11,0.19,-0.0719948316447661,-0.015271630954950384,0.10690141668465268
2025-03-19 15:00:06.813225,-0.24,-0.04,-0.05,-0.05781403147231216,-0.04254240051736178,0.050178215994836975
2025-03-19 15:00:06.871929,-0.28,0.39,0.35000000000000003,-0.12871803233458182,-0.037088246604879506,0.050178215994836975
2025-03-19 15:00:06.931613,-0.25,0.0,0.04,-0.055632369907319255,-0.07853981633974483,0.05890486225480862
2025-03-19 15:00:06.992455,-0.24,-0.05,0.13,-0.05999569303730508,-0.10471975511965978,-0.030543261909900768
2025-03-19 15:00:07.052508,-0.25,0.11,0.06,-0.07853981633974483,-0.09053895494720585,-0.025089107997418487
2025-03-19 15:00:07.112989,-0.27,0.08,0.14,-0.007635815477475192,-0.10253809355466686,-0.006544984694978736
2025-03-19 15:00:07.172905,-0.21,0.0,0.01,-0.018544123302439753,-0.09272061651219876,-0.013089969389957472
2025-03-19 15:00:07.231591,-0.17,0.06,0.05,-0.03381575425739013,-0.06435901616729091,-0.006544984694978736
2025-03-19 15:00:07.291756,-0.24,0.05,0.05,-0.02945243112740431,-0.022907446432425576,0.00545415391248228
2025-03-19 15:00:07.352181,-0.2,0.07,0.08,0.007635815477475192,-0.011999138607461015,0.011999138607461015
2025-03-19 15:00:07.413104,-0.2,0.0,0.1,-0.020725784867432664,-0.007635815477475192,0.009817477042468103
2025-03-19 15:00:07.471795,-0.26,0.0,0.11,-0.04908738521234052,-0.020725784867432664,0.026179938779914945
2025-03-19 15:00:07.530720,-0.16,0.14,0.07,-0.04908738521234052,-0.019634954084936207,0.014180800172453928
2025-03-19 15:00:07.589765,-0.2,0.09,0.21,-0.028361600344907856,-0.03381575425739013,0.017453292519943295
2025-03-19 15:00:07.650134,-0.11,0.1,0.1,0.018544123302439753,-0.05345070834232634,-0.04581489286485115
2025-03-19 15:00:07.710456,-0.14,-0.1,0.05,0.06544984694978735,-0.07635815477475191,-0.1505346479845109
2025-03-19 15:00:07.770381,-0.18,-0.17,0.11,0.13744467859455345,-0.13308135546456762,-0.26725354171163174
2025-03-19 15:00:07.829288,-0.52,0.22,-0.06,0.1930770485018727,-0.16907877128695067,-0.25743606466916363
2025-03-19 15:00:07.888226,-0.38,0.6,0.5,0.22252947962927702,-0.16689710972195776,-0.06654067773228381
2025-03-19 15:00:07.948690,0.1,0.27,0.29,-0.019634954084936207,-0.1810779098944117,0.07744898555724837
2025-03-19 15:00:08.009046,-0.18,0.35000000000000003,0.27,-0.10690141668465268,-0.17671458676442586,0.18544123302439752
2025-03-19 15:00:08.069782,-0.09,0.11,0.04,-0.12980886311707826,-0.16689710972195776,0.32506757318394386
2025-03-19 15:00:08.129504,-0.17,-0.49,-0.42,-0.2454369260617026,-0.16471544815696484,0.28688849579656794
2025-03-19 15:00:08.189230,-0.18,0.0,0.43,-0.028361600344907856,-0.1559888018969932,0.061086523819801536
2025-03-19 15:00:08.249758,-0.24,-0.04,0.09,-0.006544984694978736,-0.1832595714594046,0.022907446432425576
2025-03-19 15:00:08.310210,-0.14,0.11,0.1,-0.02945243112740431,-0.10799224746714914,0.050178215994836975
2025-03-19 15:00:08.371546,-0.14,0.07,0.2,-0.013089969389957472,-0.09708393964218458,0.07526732399225546
2025-03-19 15:00:08.431367,-0.21,-0.18,-0.09,0.05126904677733343,-0.07308566242726255,0.014180800172453928
2025-03-19 15:00:08.490358,-0.16,0.06,0.06,0.07963064712224129,0.018544123302439753,-0.06981317007977318
2025-03-19 15:00:08.550261,-0.16,0.0,0.04,0.05890486225480862,0.11344640137963143,-0.09490227807719166
2025-03-19 15:00:08.610714,-0.24,-0.24,-0.21,0.17889624832941878,0.18871372537188688,-0.22580197197676638
2025-03-19 15:00:08.672333,0.0,0.18,0.08,0.3119776037939864,0.11780972450961724,-0.3948807432637171
2025-03-19 15:00:08.732244,0.21,0.6900000000000001,-0.63,0.4886921905584123,0.09381144729469522,-0.557414529855689
2025-03-19 15:00:08.791355,0.76,0.56,-0.63,0.9479319499894202,0.11235557059713497,-0.7035858547102141
2025-03-19 15:00:08.851898,0.9400000000000001,2.12,-1.47,4.493131993102902,-0.22907446432425577,-0.5628686837681712
2025-03-19 15:00:08.912847,-0.28,-2.93,-0.67,4.666574087519838,-0.11780972450961724,-0.4603305902135044
2025-03-19 15:00:08.974168,-1.05,-2.96,-0.81,2.901609881440573,0.21380283336930536,-0.17453292519943295
2025-03-19 15:00:09.033970,-0.58,-1.9100000000000001,-1.09,3.332488040526673,0.20943951023931956,0.30325095753401476
2025-03-19 15:00:09.093104,-0.44,-2.83,-2.25,3.420845333908886,0.2181661564992912,0.6752242543653062
2025-03-19 15:00:09.153753,0.41000000000000003,-1.5,-2.63,2.48382169174443,0.09490227807719166,1.0559241974565694
2025-03-19 15:00:09.214001,0.06,0.8,-2.88,2.493639168786898,-0.1090830782496456,1.3580843242080878
2025-03-19 15:00:09.276517,0.05,5.88,-1.02,3.358667979306588,-0.022907446432425576,1.2708178616083712
2025-03-19 15:00:09.336127,-0.86,8.13,-3.06,2.5874506160815938,-0.19525871006686563,0.3687008044838021
2025-03-19 15:00:09.395033,0.47000000000000003,-1.07,0.05,0.8999353955595761,-0.5170537909033202,-0.2628902185816459
2025-03-19 15:00:09.455500,-0.6900000000000001,4.29,0.7000000000000001,-0.17889624832941878,-0.48323803664593,-0.44178646691106466
2025-03-19 15:00:09.516416,-0.08,0.62,-1.11,-0.15926129424448257,-0.11235557059713497,-0.17889624832941878
2025-03-19 15:00:09.577745,-0.09,0.23,-1.07,-0.02181661564992912,0.008726646259971648,0.020725784867432664
2025-03-19 15:00:09.637606,-0.19,0.03,-1.1300000000000001,0.031634092692397225,0.12326387842209953,0.09817477042468103
2025-03-19 15:00:09.696512,-0.05,0.26,-0.55,0.037088246604879506,0.10799224746714914,0.050178215994836975
2025-03-19 15:00:09.756673,-0.1,0.12,-0.71,0.004363323129985824,0.12326387842209953,0.002181661564992912
2025-03-19 15:00:09.817128,-0.17,0.22,-0.7000000000000001,0.19416787928436915,0.11017390903214205,0.011999138607461015
2025-03-19 15:00:09.877832,-0.28,-0.4,-0.59,0.05890486225480862,0.07635815477475191,-0.2007128639793479
2025-03-19 15:00:09.936583,0.59,-0.89,-0.63,0.22907446432425577,0.07526732399225546,-0.7755806863549802
2025-03-19 15:00:09.996226,5.0,-1.93,-0.28,0.5606870222031783,0.0818123086872342,-2.0976675947406846
2025-03-19 15:00:10.057914,2.44,-0.46,-1.1400000000000001,1.4813482026301872,0.04254240051736178,-2.267837196810132
2025-03-19 15:00:10.118637,-2.11,-10.71,-0.41000000000000003,5.861033794353458,0.1189005552921137,-1.1431906600562858
2025-03-19 15:00:10.179205,-2.74,-9.75,-0.34,3.1503192998497647,0.9981101659842572,0.025089107997418487
2025-03-19 15:00:10.237820,-0.07,-3.61,-2.71,2.8448866807507573,1.4769848795002014,1.0635600129340446
2025-03-19 15:00:10.296435,0.74,-6.01,-4.72,4.86619612071669,1.301361123518272,1.8718656227639185
2025-03-19 15:00:10.357152,2.0,-4.5,-7.09,3.304126440181765,1.1999138607461015,2.265655535245139
2025-03-19 15:00:10.417993,1.78,3.97,-6.58,3.325943055831694,0.6850417314077744,2.592904769994076
2025-03-19 15:00:10.479198,2.52,6.36,-9.040000000000001,3.8549959853424753,0.3621558197888234,1.8478673455489965
2025-03-19 15:00:10.537969,1.3,14.290000000000001,-9.620000000000001,1.3842642629880026,-0.8453938564347534,-0.2683443724941282
2025-03-19 15:00:10.596601,6.53,-16.59,0.86,-0.05345070834232634,-0.990474350506782,-1.27736284630335
2025-03-19 15:00:10.656305,-0.2,-0.29,1.16,-0.34797501961636945,-0.9599310885968813,-0.5159629601208237
2025-03-19 15:00:10.716820,-0.03,-0.49,-1.3800000000000001,-0.05126904677733343,-0.6948592084502424,-0.3119776037939864
2025-03-19 15:00:10.777140,0.07,-0.42,-0.15,0.13308135546456762,-0.3174317577064687,-0.4374231437810788
2025-03-19 15:00:10.837954,-0.78,-0.29,-1.24,0.44724062082354693,-0.1308996938995747,-0.42542400517361784
2025-03-19 15:00:10.897681,-0.5,-0.12,-0.52,0.3076142806640006,-0.025089107997418487,-0.3937899124812206
2025-03-19 15:00:10.956812,-0.41000000000000003,-1.21,-1.78,0.6446809924554054,0.06435901616729091,-0.5846852994181004
2025-03-19 15:00:11.016931,-1.87,0.76,0.5,0.8115781021773633,0.09599310885968812,-0.9741118887693352
2025-03-19 15:00:11.077214,0.73,-1.69,-2.0100000000000002,1.5587971881874356,0.28688849579656794,-1.0821041362364843
2025-03-19 15:00:11.137416,2.43,-1.49,-0.56,0.2825251726665821,0.21271200258680892,-0.9293878266869805
2025-03-19 15:00:11.196227,0.03,0.6900000000000001,0.54,0.8857545953871222,0.2814343418840856,-1.0777408131064985
2025-03-19 15:00:11.255690,1.52,-1.43,-0.02,1.5162547876700738,0.5541420375081997,-1.1464631524037752
2025-03-19 15:00:11.316837,2.02,-8.17,0.6900000000000001,4.608760056047527,0.48978302134090873,-0.7068583470577035
2025-03-19 15:00:11.377891,0.1,-12.11,1.52,3.0674161603800343,0.9152070265145266,0.1930770485018727
2025-03-19 15:00:11.438623,-1.2,-10.75,0.99,2.411826860099664,1.189005552921137,1.9122263617162873
2025-03-19 15:00:11.497258,1.6300000000000001,-5.03,1.16,1.3428126932531372,1.7431475904293365,3.1884983772371407
2025-03-19 15:00:11.556125,3.63,11.65,-5.94,-0.12108221685710661,1.4431691252428112,2.9703322207378497
2025-03-19 15:00:11.616575,-0.38,20.26,-9.21,-0.2596177262341565,0.284706834231575,0.6206827152404835
2025-03-19 15:00:11.677147,1.69,-29.86,-1.49,0.5519603759432067,-1.2959069696057897,0.18216874067690814
2025-03-19 15:00:11.738529,0.48,4.3500000000000005,2.0,0.6970408700152354,-0.7733990247899872,-0.24652775684419906
2025-03-19 15:00:11.797284,-1.08,-0.78,-1.8800000000000001,0.06981317007977318,-0.3021601267515183,0.06654067773228381
2025-03-19 15:00:11.855924,0.34,-0.86,0.12,-0.18653206380689397,-0.1908953869368798,0.1559888018969932
2025-03-19 15:00:11.916454,-0.24,-0.85,-0.9,-0.23234695667174513,-0.18435040224190105,-0.07526732399225546
2025-03-19 15:00:11.976835,-0.2,-0.41000000000000003,-0.41000000000000003,-0.019634954084936207,-0.11453723216212788,-0.17562375598192942
2025-03-19 15:00:12.037597,-0.09,-0.12,0.0,-0.05672320068981571,-0.1908953869368798,-0.15489797111449674
2025-03-19 15:00:12.096318,-0.41000000000000003,-0.64,-0.7000000000000001,0.25634523388666713,-0.24216443371421323,-0.08399397025222712
2025-03-19 15:00:12.155218,0.0,-0.62,0.13,0.19198621771937624,-0.24107360293171676,-0.13526301702956053
2025-03-19 15:00:12.214779,-0.2,-0.63,-0.54,0.2181661564992912,-0.29343348049154666,-0.32179508083645453
2025-03-19 15:00:12.276616,-0.17,-0.89,-0.26,0.07744898555724837,-0.2716168648416175,-0.3196134192714616
2025-03-19 15:00:12.337115,-0.38,-0.9500000000000001,-0.78,-0.032724923474893676,-0.20943951023931956,-0.2585268954516601
2025-03-19 15:00:12.396424,-0.1,-0.78,0.0,0.028361600344907856,-0.20725784867432664,-0.37088246604879505
2025-03-19 15:00:12.455255,-0.15,-0.15,-0.37,0.07744898555724837,-0.1810779098944117,-0.37306412761378793
2025-03-19 15:00:12.513926,-0.07,-0.5700000000000001,-0.26,0.0818123086872342,-0.12108221685710661,-0.42215151282612845
2025-03-19 15:00:12.574269,0.58,-1.37,-0.11,0.37742745074377376,-0.29561514205653955,-0.8748462875621577
2025-03-19 15:00:12.635754,5.12,-2.52,0.74,-0.30543261909900765,-0.96647607329186,-1.6853335589570244
2025-03-19 15:00:12.696768,3.0300000000000002,-4.05,2.86,-1.0962849364089382,-1.1453723216212788,-2.0420352248333655
2025-03-19 15:00:12.755616,-2.25,-10.700000000000001,7.55,-2.909245696918048,-0.32179508083645453,-0.6086835766330224
2025-03-19 15:00:12.814290,-2.35,-7.11,6.96,-1.870774791981422,0.16689710972195776,0.9413869652944415
2025-03-19 15:00:12.874744,-1.02,-4.0600000000000005,6.22,-2.067124332830784,0.8944812416470939,2.5067291381768557
2025-03-19 15:00:12.935209,2.34,-1.27,3.7800000000000002,-2.7085328329387,1.2926344772583003,3.0619620064675517
2025-03-19 15:00:12.996150,4.03,3.84,1.04,-2.624538862686473,1.1464631524037752,3.107776899332403
2025-03-19 15:00:13.055910,3.35,8.11,-2.42,-2.6681720939863314,0.8235772407848243,2.310379597327494
2025-03-19 15:00:13.115827,1.24,13.68,-1.46,-2.6463554783364023,0.48651052899341934,0.8388488717397746
2025-03-19 15:00:13.176719,1.43,9.97,-3.63,-1.0875582901489667,-0.20943951023931956,-1.2533645690884279
2025-03-19 15:00:13.237409,2.74,5.99,-0.02,-0.9457502884244273,0.20180369476184434,-0.7897614865274342
2025-03-19 15:00:13.297973,0.81,1.5,-1.68,-0.1908953869368798,-0.49632800603588745,-0.6305001922829515
2025-03-19 15:00:13.356731,-0.39,-1.3900000000000001,-0.92,-0.3337942194439155,-0.24216443371421323,-0.46687557490848314
2025-03-19 15:00:13.415372,-0.18,-0.43,-0.33,-0.3327033886614191,0.05345070834232634,-0.3534291735288517
2025-03-19 15:00:13.477010,-0.2,-0.93,-0.73,-0.14180800172453928,-0.0545415391248228,-0.3763366199612773
2025-03-19 15:00:13.538367,-0.06,-1.1400000000000001,-0.53,-0.17889624832941878,-0.05999569303730508,-0.8508480103472357
2025-03-19 15:00:13.598962,0.54,-1.22,-0.14,0.031634092692397225,-0.24107360293171676,-1.1900963837036334
2025-03-19 15:00:13.657599,2.54,-1.49,-0.8200000000000001,0.3294308963139297,-0.28361600344907856,-1.8391406992890247
2025-03-19 15:00:13.716239,9.66,-3.13,4.23,0.015271630954950384,-0.743946593662583,-2.6965336943312392
2025-03-19 15:00:13.776868,8.38,-16.98,3.14,-1.2424562612634633,-1.3329952162106693,-4.19206269713388
2025-03-19 15:00:13.837283,-2.54,-20.64,4.03,-1.6089754041822726,-0.5345070834232635,-0.34470252726888007
2025-03-19 15:00:13.899211,-4.62,-8.43,2.66,-0.2585268954516601,0.34470252726888007,2.2809271662000894
2025-03-19 15:00:13.958843,-0.53,-5.78,2.4,-0.05999569303730508,1.0897399517139594,3.8331793696925462
2025-03-19 15:00:14.017551,4.04,-0.43,0.6900000000000001,-1.0537425358915764,1.3766284475105275,4.409138022850675
2025-03-19 15:00:14.078367,6.26,9.73,-1.83,0.5945027764605685,0.8944812416470939,4.381867253288264
2025-03-19 15:00:14.138561,5.23,14.1,-9.120000000000001,1.2686362000433782,0.6261368691529657,2.5536348618242033
2025-03-19 15:00:14.199601,2.98,18.1,-4.29,0.17235126363444003,-0.49741883681838395,-0.8246680715673207
2025-03-19 15:00:14.259482,7.79,-34.9,10.69,0.18544123302439752,-0.7603090554000298,-1.2348204457859882
2025-03-19 15:00:14.318080,-2.74,5.68,2.5300000000000002,0.1265363707695889,-0.6730425928003133,-1.0351984125891367
2025-03-19 15:00:14.377539,-1.1300000000000001,-0.06,-0.28,-0.10799224746714914,-0.6774059159302992,-0.6599526234103559
2025-03-19 15:00:14.438860,-0.13,-0.85,-1.6,-0.5988660995905544,-0.009817477042468103,-0.6403176693254197
2025-03-19 15:00:14.499199,-0.07,-0.84,-0.52,-0.16471544815696484,0.008726646259971648,-0.7995789635699022
2025-03-19 15:00:14.558772,-0.03,-0.43,-0.59,-0.19744037163185854,0.06654067773228381,-0.8803004414746399
2025-03-19 15:00:14.617818,0.38,-0.5,-0.39,-0.09599310885968812,0.0,-1.0210176124166828
2025-03-19 15:00:14.676826,0.93,-0.37,0.17,0.07090400086226964,0.10144726277217041,-1.1977321991811087
2025-03-19 15:00:14.737063,2.06,-0.9500000000000001,0.89,0.3621558197888234,0.11235557059713497,-1.7071501746069535
2025-03-19 15:00:14.797533,3.5700000000000003,-3.72,-0.08,0.4068798818711781,0.044724062082354694,-2.499093322699381
2025-03-19 15:00:14.858085,9.22,-14.36,-1.29,0.13744467859455345,-0.10035643198967395,-3.6368298288431844
2025-03-19 15:00:14.917738,7.51,1.71,-3.66,0.7526732399225546,-0.35561083509384467,-2.9888763440402895
2025-03-19 15:00:14.977565,-1.75,-11.85,-0.8300000000000001,1.3100877697782436,0.5105088062083414,-0.30325095753401476
2025-03-19 15:00:15.037756,-3.52,-10.98,-0.04,1.1955505376161157,1.2904528156933075,1.8838647613713795
2025-03-19 15:00:15.097962,-1.1500000000000001,-8.65,-0.38,1.2675453692608818,1.6733344203495635,3.806999430912631
2025-03-19 15:00:15.158739,3.65,-4.26,-1.42,1.0515608743265836,1.822778237551578,5.054909846088577
2025-03-19 15:00:15.217726,9.73,6.71,-6.5,0.8410305333047675,1.6569719586121165,5.298165110585287
2025-03-19 15:00:15.276759,7.45,17.93,-12.25,2.4565509221820188,0.8726646259971648,3.815726077172603
2025-03-19 15:00:15.337371,4.07,20.06,-10.05,0.7417649320975901,-0.6174102228929941,-0.6970408700152354
2025-03-19 15:00:15.397827,7.21,18.47,-10.99,0.619591884457987,-0.8126689329598596,-1.9034997154563156
2025-03-19 15:00:15.459285,-0.46,-0.13,-2.32,-0.02399827721492203,-1.2740903539558606,-1.1737339219661866
2025-03-19 15:00:15.519361,0.15,0.56,0.48,-0.26398104936414235,-0.5825036378531074,-0.6774059159302992
2025-03-19 15:00:15.579347,-0.16,0.06,-0.49,-0.25089107997418486,-0.18871372537188688,-0.6403176693254197
2025-03-19 15:00:15.639880,-0.07,-0.16,-0.46,-0.24216443371421323,-0.08508480103472356,-0.5203262832508095
2025-03-19 15:00:15.700223,-0.24,-0.35000000000000003,-0.45,-0.08399397025222712,-0.05781403147231216,-0.6795875774952921
2025-03-19 15:00:15.760866,0.51,-0.23,0.23,0.15817046346198613,-0.025089107997418487,-0.9490227807719167
2025-03-19 15:00:15.819646,1.5,-0.44,1.3,0.40251655874119224,-0.018544123302439753,-1.4169891864628963
2025-03-19 15:00:15.879147,3.68,-3.15,0.54,0.8901179185171081,-0.09926560120717749,-2.291835474025054
2025-03-19 15:00:15.940141,11.24,-12.67,1.4000000000000001,0.136353847812057,-0.21162117180431245,-3.605195736150787
2025-03-19 15:00:16.000947,5.07,0.53,-1.21,1.5795229730548683,-0.3021601267515183,-2.9245173278729983
2025-03-19 15:00:16.061857,-2.67,-10.31,0.34,1.3100877697782436,0.9512044423369096,-0.6719517620178169
2025-03-19 15:00:16.120456,-3.5700000000000003,-10.67,-1.02,1.4988014951501305,2.0660335020482874,1.4420782944603148
2025-03-19 15:00:16.179194,1.0,-7.58,-5.46,0.6719517620178169,2.5449082155642317,3.212496654452063
2025-03-19 15:00:16.239194,4.92,-1.29,-6.94,1.6580627893946132,1.8020524526841453,4.146247804269029
2025-03-19 15:00:16.300554,5.25,0.77,-9.94,2.356194490192345,0.954476934684399,4.2564217133011715
2025-03-19 15:00:16.362066,5.72,3.97,-5.6000000000000005,1.1290098598838318,0.5377795757707527,3.6019232438032978
2025-03-19 15:00:16.420841,2.87,9.22,-1.79,1.4486232791552935,0.23234695667174513,2.743439417978587
2025-03-19 15:00:16.479606,1.3900000000000001,14.84,-4.98,0.4723297288209654,-0.13526301702956053,0.8388488717397746
2025-03-19 15:00:16.538630,3.38,11.78,-7.23,0.6763150851478027,-0.8312130562622995,-1.2140946609185554
2025-03-19 15:00:16.599251,9.17,1.52,-12.41,0.5388704065532492,-1.6013395887047974,-1.4628040793277475
2025-03-19 15:00:16.659858,-0.86,0.08,-2.1,0.0818123086872342,-1.347176016383123,-1.0581058590215622
2025-03-19 15:00:16.720707,-0.03,-0.42,-0.06,-0.14508049407202864,-0.7461282552275759,-0.8410305333047675
2025-03-19 15:00:16.780518,-0.14,-0.31,-0.59,-0.09926560120717749,-0.6294093615004551,-0.7941248096574199
2025-03-19 15:00:16.839359,-0.3,0.23,-0.6,-0.05781403147231216,-0.533416252640767,-0.559596191420682
2025-03-19 15:00:16.899387,-0.25,-0.04,-0.62,-0.10471975511965978,-0.3687008044838021,-0.3687008044838021
2025-03-19 15:00:16.959619,-0.42,0.08,-0.76,-0.15707963267948966,-0.2083486794568231,-0.32834006553143325
2025-03-19 15:00:17.020026,0.01,-0.28,-0.47000000000000003,0.05235987755982989,-0.19853120241435498,-0.3937899124812206
2025-03-19 15:00:17.078780,-0.21,-0.08,-0.6,0.13199052468207118,-0.17780541754692233,-0.4886921905584123
2025-03-19 15:00:17.138738,-0.18,0.16,-0.22,0.09272061651219876,-0.1407171709420428,-0.4886921905584123
2025-03-19 15:00:17.199375,-0.07,0.14,-0.4,0.05235987755982989,-0.07635815477475191,-0.37742745074377376
2025-03-19 15:00:17.259972,0.15,0.28,0.15,0.07635815477475191,-0.08617563181722002,-0.38724492778624187
2025-03-19 15:00:17.320639,0.49,0.01,0.09,0.5290529295107811,-0.20180369476184434,-0.6828600698427815
2025-03-19 15:00:17.379371,0.75,-1.34,-1.09,0.13199052468207118,-0.14180800172453928,-0.8606654873897037
2025-03-19 15:00:17.438779,2.86,-1.43,0.14,-0.6130468997630083,-0.28907015736156083,-1.2402745996984705
2025-03-19 15:00:17.499863,4.93,-2.84,1.76,-0.5835944686356039,-0.5835944686356039,-1.8140515912916062
2025-03-19 15:00:17.560272,1.84,-6.47,0.49,-0.30870511144649704,-0.7003133623627247,-1.9918570088385286
2025-03-19 15:00:17.620995,-1.56,-10.1,2.74,-0.2301652951067522,-0.3916082509162277,-1.0439250588491085
2025-03-19 15:00:17.679529,-2.64,-7.54,2.2600000000000002,-0.5606870222031783,0.22362031041177347,0.3119776037939864
2025-03-19 15:00:17.738931,-1.99,-4.94,1.55,-0.30652344988150415,0.6795875774952921,1.7420567596468401
2025-03-19 15:00:17.799212,0.58,-3.48,0.8200000000000001,-0.29670597283903605,0.8933904108645975,2.681262063376289
2025-03-19 15:00:17.859923,2.04,-0.64,0.56,0.028361600344907856,0.9468411192069238,3.1383201612423037
2025-03-19 15:00:17.921723,2.88,0.54,-1.42,0.33597588100890846,1.0079276430267252,3.0990502530724315
2025-03-19 15:00:17.980281,3.43,3.58,-2.71,-0.4908738521234052,0.7635815477475192,2.7957992955384166
2025-03-19 15:00:18.039083,2.42,8.540000000000001,-1.95,-1.722421805561904,0.4657847441259867,1.9351338081487128
2025-03-19 15:00:18.099357,1.17,12.200000000000001,-1.6300000000000001,-0.978475211899321,-0.11562806294462433,0.3392483733563978
2025-03-19 15:00:18.159797,0.8,8.61,-0.81,0.055632369907319255,-0.47123889803846897,-1.1868238913561442
2025-03-19 15:00:18.220306,3.54,0.91,-1.31,0.6283185307179586,-0.65558930028037,-1.3788101090755203
2025-03-19 15:00:18.280792,-0.15,0.39,-1.45,-0.3119776037939864,-0.5901394533305827,-0.9304786574694769
2025-03-19 15:00:18.340600,-0.17,0.05,-0.39,-0.20725784867432664,-0.4188790204786391,-0.5726861608106394
2025-03-19 15:00:18.400361,-0.31,-0.4,-0.8300000000000001,-0.11453723216212788,-0.11453723216212788,-0.5563236990731926
2025-03-19 15:00:18.461050,-0.05,0.4,-0.07,-0.01090830782496456,-0.0916297857297023,-0.3839724354387525
2025-03-19 15:00:18.521842,-0.14,0.2,-0.24,-0.04799655442984406,-0.050178215994836975,-0.34579335805137656
2025-03-19 15:00:18.581996,-0.23,-0.37,-0.13,0.016362461737446838,-0.16253378659197193,-0.4286964975211072
2025-03-19 15:00:18.641877,-0.14,-0.8200000000000001,-0.61,0.06872233929727672,-0.17016960206944712,-0.743946593662583
2025-03-19 15:00:18.700903,0.55,-0.3,-0.32,0.22580197197676638,-0.09381144729469522,-1.0919216132789524
2025-03-19 15:00:18.761118,1.58,0.27,0.68,0.13744467859455345,-0.13308135546456762,-1.3122694313432366
2025-03-19 15:00:18.821489,5.13,-2.35,0.38,-0.06435901616729091,-0.2814343418840856,-1.7213309747794074
2025-03-19 15:00:18.881706,4.68,-5.5200000000000005,2.14,-0.5181446216858165,-0.6784967467127956,-2.5743606466916362
2025-03-19 15:00:18.940488,0.01,-5.37,-1.46,-0.6239552075879728,-0.6435901616729091,-2.0900317792632097
2025-03-19 15:00:19.000123,-1.57,-7.36,2.63,-1.6351553429621875,-0.22689280275926285,-0.2683443724941282
2025-03-19 15:00:19.061655,-2.19,-7.21,2.34,-0.0545415391248228,-0.16035212502697901,1.4529866022852793
2025-03-19 15:00:19.121857,-0.86,-5.37,3.0500000000000003,-0.5257804371632918,0.31852258848896514,3.057598683337566
2025-03-19 15:00:19.182400,1.8,-2.73,2.8000000000000003,-1.437714971330329,0.6261368691529657,3.6662822599705884
2025-03-19 15:00:19.241177,4.28,1.77,2.5300000000000002,-1.4922565104551517,0.755945732270044,3.8626318008199507
2025-03-19 15:00:19.300210,5.74,7.8500000000000005,-0.36,-2.6496279706838917,0.7723081940074908,3.4873860116411697
2025-03-19 15:00:19.360870,2.48,22.66,-0.46,-1.7115134977369395,0.29888763440402893,1.451895771502783
2025-03-19 15:00:19.421669,14.870000000000001,-31.79,-4.58,-3.220132469929538,-0.6697701004528239,-1.5795229730548683
2025-03-19 15:00:19.483082,-2.58,-1.44,3.69,0.28907015736156083,-0.6861325621902709,-1.2915436464758039
2025-03-19 15:00:19.541994,-0.32,1.09,-0.76,-0.5639595145506677,-0.3294308963139297,-0.7995789635699022
2025-03-19 15:00:19.600969,-0.3,-0.51,-0.5,-0.21271200258680892,-0.12435470920459599,-0.4734205596034619
2025-03-19 15:00:19.661484,0.03,-0.48,0.06,-0.3937899124812206,0.004363323129985824,-0.4908738521234052
2025-03-19 15:00:19.722031,-0.22,-0.73,-0.46,-0.3937899124812206,-0.06544984694978735,-0.6446809924554054
2025-03-19 15:00:19.782672,0.07,-0.23,0.01,-0.17780541754692233,-0.1439896632895322,-0.7908523173099306
2025-03-19 15:00:19.842907,0.61,-0.93,-0.38,-0.11999138607461016,-0.23561944901923448,-1.0013826583317467
2025-03-19 15:00:19.902735,2.24,-0.52,0.76,-0.30652344988150415,-0.21707532571679475,-1.4388058021128254
2025-03-19 15:00:19.963479,4.08,-1.43,2.27,-0.14944381720201447,-0.4930555136883981,-2.0354902401383868
2025-03-19 15:00:20.023804,10.68,-8.03,1.99,-0.7548549014875475,-0.8584838258247108,-3.0117837904727147
2025-03-19 15:00:20.084468,2.31,-8.2,1.2,0.13526301702956053,-0.557414529855689,-3.1612276076747294
2025-03-19 15:00:20.143939,-2.14,-14.02,3.11,-0.8028514559173916,-0.24107360293171676,-0.5355979142057599
2025-03-19 15:00:20.203864,-4.25,-9.08,2.98,-0.4385139745635753,0.31306843457648287,1.88059226902389
2025-03-19 15:00:20.264915,-0.88,-7.92,3.67,-0.04363323129985824,0.9850201965942997,3.8288160465625602
2025-03-19 15:00:20.325371,3.62,-1.69,4.75,-0.7461282552275759,1.4278974942878608,4.7658396887270165
2025-03-19 15:00:20.386047,8.08,6.5600000000000005,-0.21,-0.3883357585687383,1.610066234964769,4.895648551844094
2025-03-19 15:00:20.444691,8.01,15.07,-7.07,0.35015668118136234,1.3220869083857045,3.490658503988659
2025-03-19 15:00:20.503397,3.52,21.28,-6.3,-1.239183768915974,-0.08617563181722002,-0.3839724354387525
2025-03-19 15:00:20.563864,9.81,-32.21,14.290000000000001,-1.8238690683340744,-0.8737554567796613,-1.5915221116623293
2025-03-19 15:00:20.625170,-0.43,5.2700000000000005,1.76,0.6512259771503842,-0.7155849933176751,-1.3068152774307542
2025-03-19 15:00:20.685815,-0.26,0.85,-0.56,-0.41015237421866746,-0.4886921905584123,-0.9457502884244273
2025-03-19 15:00:20.744726,-0.03,-0.5,-0.39,-0.28034351110158917,-0.1538071403320003,-0.43524148221608594
2025-03-19 15:00:20.803467,-0.01,-0.41000000000000003,-0.08,-0.23889194136672387,-0.0818123086872342,-0.3937899124812206
2025-03-19 15:00:20.862985,-0.23,-0.9400000000000001,-0.4,-0.19198621771937624,-0.15707963267948966,-0.7766715171374766
2025-03-19 15:00:20.924890,0.15,-0.75,-0.26,-0.272707695624114,-0.19525871006686563,-1.0242901047641721
2025-03-19 15:00:20.985855,1.1,-1.08,-0.34,-0.11780972450961724,-0.17016960206944712,-1.3973542323779602
2025-03-19 15:00:21.045422,3.22,-0.43,1.99,-0.16035212502697901,-0.24216443371421323,-1.896954730761337
2025-03-19 15:00:21.104142,4.83,-2.75,2.58,-0.028361600344907856,-0.49414634447089456,-2.566724831214161
2025-03-19 15:00:21.162999,9.870000000000001,-13.450000000000001,1.42,-1.0711958284115197,-1.0439250588491085,-3.516838442768574
2025-03-19 15:00:21.223502,5.97,1.1,-1.78,0.4854196982109229,-0.6501351463678877,-2.5830872929516078
2025-03-19 15:00:21.284737,-2.82,-8.97,1.86,-0.3839724354387525,0.3959715740462135,0.11126473981463851
2025-03-19 15:00:21.346107,-3.89,-9.59,1.33,0.9228428419920017,1.2566370614359172,2.438006798879579
2025-03-19 15:00:21.404985,-0.15,-7.86,0.68,0.32288591161895097,1.6798794050445423,4.151701958181511
2025-03-19 15:00:21.463644,5.12,-2.65,-0.72,-0.27707101875409984,1.7889624832941877,5.077817292521003
2025-03-19 15:00:21.524189,9.870000000000001,8.39,-4.92,0.10690141668465268,0.9981101659842572,5.093088923475953
2025-03-19 15:00:21.584739,6.61,18.95,-9.82,0.7515824091400581,0.5399612373357457,2.598358923906558
2025-03-19 15:00:21.645326,4.8500000000000005,19.37,-6.47,-1.0221084431991792,-0.6217735460229799,-2.2623830428976497
2025-03-19 15:00:21.705113,8.84,-5.11,-19.64,1.6395186660921732,-1.870774791981422,-1.8358682069415353
2025-03-19 15:00:21.764911,-1.12,0.06,-0.41000000000000003,-0.5181446216858165,-0.2977968036215325,-0.9926560120717749
2025-03-19 15:00:21.825726,-0.28,-0.38,-0.36,-0.06981317007977318,-0.19962203319685143,-0.5563236990731926
2025-03-19 15:00:21.886206,-0.05,-0.13,0.32,-0.32288591161895097,-0.11780972450961724,-0.5628686837681712
2025-03-19 15:00:21.947457,-0.39,-1.18,-0.7000000000000001,-0.3327033886614191,-0.18980455615438332,-0.7690357016600015
2025-03-19 15:00:22.007038,-0.04,-0.6,-0.01,-0.09599310885968812,-0.26070855701665296,-1.0122909661567112
2025-03-19 15:00:22.066712,0.31,-0.49,0.0,-0.028361600344907856,-0.1908953869368798,-1.2849986617808251
2025-03-19 15:00:22.127440,2.07,-0.96,0.22,0.07308566242726255,-0.08835729338221293,-1.6755160819145565
2025-03-19 15:00:22.187818,6.62,-2.38,4.5,0.15926129424448257,-0.3981532356112064,-2.581996462169111
2025-03-19 15:00:22.248649,7.26,-15.19,3.73,-0.3436116964863836,-0.9413869652944415,-3.733913768485369
2025-03-19 15:00:22.307354,0.86,-21.23,0.1,0.4930555136883981,-0.4919646829059016,-2.069305994395777
2025-03-19 15:00:22.366096,-4.7700000000000005,-12.700000000000001,2.12,-0.8072147790473774,0.04799655442984406,0.8083056098298739
2025-03-19 15:00:22.427383,-1.6,-8.290000000000001,1.44,-0.7112216701876893,0.6926775468852495,3.015056282820204
2025-03-19 15:00:22.488924,3.5,-2.58,1.33,-0.30652344988150415,1.0297442586766545,4.619668363872491
2025-03-19 15:00:22.550018,7.62,2.43,0.09,-0.002181661564992912,1.1486448139687682,4.957825906446392
2025-03-19 15:00:22.608819,7.33,15.07,-2.43,-0.20507618710933373,0.7395832705325971,3.7971819538701634
2025-03-19 15:00:22.667486,3.41,25.25,-6.44,-0.020725784867432664,-0.36760997370130566,-0.433059820651093
2025-03-19 15:00:22.728521,8.26,-16.47,22.22,1.8522306686789822,0.055632369907319255,-2.0660335020482874
2025-03-19 15:00:22.789684,-0.15,5.59,-1.8,1.5467980495799745,-1.3526301702956054,-1.4911656796726553
2025-03-19 15:00:22.850495,0.15,1.21,0.52,-0.4756022211684548,-0.459239759431008,-0.9457502884244273
2025-03-19 15:00:22.909151,-0.49,-2.13,-1.31,-0.2694352032766246,-0.18544123302439752,-0.6752242543653062
2025-03-19 15:00:22.967798,-0.07,-1.08,0.13,-0.18216874067690814,-0.18216874067690814,-0.7886706557449377
2025-03-19 15:00:23.027997,-0.02,-0.43,0.24,-0.15162547876700738,-0.17780541754692233,-0.9304786574694769
2025-03-19 15:00:23.088858,1.1400000000000001,-0.9,0.18,-0.07526732399225546,-0.14289883250703572,-1.0711958284115197
2025-03-19 15:00:23.149513,2.87,-0.8200000000000001,1.99,-0.020725784867432664,-0.16907877128695067,-1.610066234964769
2025-03-19 15:00:23.208372,7.8100000000000005,-5.14,2.71,-0.12762720155208535,-0.48651052899341934,-2.6790804018112957
2025-03-19 15:00:23.268254,6.46,-19.21,4.12,-1.0450158896316049,-1.0722866591940161,-4.043709710714363
2025-03-19 15:00:23.329390,3.36,-0.04,-6.46,0.8126689329598596,-0.24107360293171676,-2.2165681500327987
2025-03-19 15:00:23.389932,-4.79,-9.540000000000001,0.55,-0.7046766854927106,0.19962203319685143,0.5890486225480862
2025-03-19 15:00:23.450259,-2.64,-9.08,1.33,0.04799655442984406,0.7603090554000298,2.86561246561819
2025-03-19 15:00:23.509395,1.57,-5.97,0.37,0.6490443155853913,1.1039207518864134,4.518221101100321
2025-03-19 15:00:23.569219,5.8500000000000005,-2.58,-0.2,0.3916082509162277,1.2239121379610236,5.406157358052436
2025-03-19 15:00:23.630254,10.290000000000001,10.540000000000001,-4.45,0.2825251726665821,1.0101093045917182,4.777838827334477
2025-03-19 15:00:23.690965,5.0200000000000005,22.62,-9.41,-0.7635815477475192,-0.08399397025222712,1.4628040793277475
2025-03-19 15:00:23.751325,20.150000000000002,-32.8,34.46,-0.8344855486097889,-0.5868669609830933,-2.5776331390391256
2025-03-19 15:00:23.811041,-2.71,4.36,-1.74,1.2577278922184136,-1.7595100521667835,-1.9416787928436916
2025-03-19 15:00:23.870901,-0.01,-0.13,0.98,-0.5061454830783556,-0.5115996369908379,-1.5304355878425278
2025-03-19 15:00:23.931511,-0.37,-1.0,-0.02,0.1505346479845109,-0.2999784651865254,-0.8497571795647392
2025-03-19 15:00:23.992250,0.14,-0.06,0.5,0.017453292519943295,-0.18544123302439752,-0.6752242543653062
2025-03-19 15:00:24.053838,0.25,-0.07,0.18,-0.27707101875409984,-0.11671889372712078,-0.5792311455056182
2025-03-19 15:00:24.112806,1.24,-0.74,0.8,-0.39051742013373125,-0.2083486794568231,-0.6599526234103559
2025-03-19 15:00:24.172100,3.14,-1.51,1.32,-0.3327033886614191,-0.33052172709642613,-1.437714971330329
2025-03-19 15:00:24.232438,5.14,-3.18,2.5100000000000002,-0.3119776037939864,-0.6141377305455047,-2.4892758456569126
2025-03-19 15:00:24.292879,12.120000000000001,-15.17,2.73,-1.5893404500973363,-1.1595531217937327,-3.801545277000149
2025-03-19 15:00:24.353357,7.7700000000000005,4.21,0.28,-0.26616271092913524,-1.5086189721925987,-3.043417883165112
2025-03-19 15:00:24.413178,-2.94,-11.700000000000001,4.2700000000000005,-1.6253378659197193,0.13962634015954636,0.47669305195095124
2025-03-19 15:00:24.471913,-4.13,-9.77,3.2,0.8966629032120869,0.9741118887693352,3.001966313430247
2025-03-19 15:00:24.530978,-0.52,-7.98,2.23,0.2825251726665821,1.6133387273122584,4.78329298124696
2025-03-19 15:00:24.592128,6.26,-1.1,2.12,-0.14180800172453928,2.045307717180855,5.5610553291669325
2025-03-19 15:00:24.653787,12.530000000000001,13.58,-5.6000000000000005,0.46469391334349025,1.6417003276571662,5.05709150765357
2025-03-19 15:00:24.714194,7.38,25.48,-14.83,-1.3406310316881445,0.050178215994836975,1.102829921103917
2025-03-19 15:00:24.772830,2.2800000000000002,-7.55,9.33,-1.9864028549260464,-1.1813697374436618,-2.0943951023931953
2025-03-19 15:00:24.831697,-3.67,-2.7600000000000002,9.34,-0.14726215563702155,-0.7232208087951503,-1.7038776822594641
2025-03-19 15:00:24.892623,-0.55,-0.2,0.0,-0.3490658503988659,-0.5312345910757741,-1.203186353093591
2025-03-19 15:00:24.953462,-0.39,-0.99,-0.23,0.014180800172453928,-0.2748893571891069,-0.7363107781851078
2025-03-19 15:00:25.014106,0.06,-0.21,0.59,-0.17562375598192942,-0.06654067773228381,-0.6468626540203984
2025-03-19 15:00:25.072909,-0.03,-1.02,-0.12,-0.2683443724941282,-0.1559888018969932,-0.7079491778402
2025-03-19 15:00:25.131808,0.63,-1.04,0.36,-0.17562375598192942,-0.2399827721492203,-1.0275625971116615
2025-03-19 15:00:25.192444,2.19,-0.86,1.01,-0.3294308963139297,-0.13744467859455345,-1.5293447570600314
2025-03-19 15:00:25.252930,5.0,-1.85,3.42,0.09817477042468103,-0.3272492347489368,-2.430370983402104
2025-03-19 15:00:25.313994,12.61,-10.91,2.5100000000000002,-0.791943148092427,-0.5214171140333059,-3.5713799818933967
2025-03-19 15:00:25.373794,7.91,0.74,1.1500000000000001,1.0515608743265836,-0.2781618495365963,-3.3008539478342755
2025-03-19 15:00:25.432519,-1.45,-13.030000000000001,2.06,-0.08835729338221293,0.04581489286485115,-0.8115781021773633
2025-03-19 15:00:25.493226,-4.32,-10.93,1.1500000000000001,0.5017821599483697,0.7592182246175333,1.6536994662646272
2025-03-19 15:00:25.553653,-1.46,-9.02,0.26,-0.29561514205653955,1.3755376167280309,3.6662822599705884
2025-03-19 15:00:25.614218,3.5500000000000003,-3.84,1.21,-0.04799655442984406,1.4289883250703572,5.085453107998478
2025-03-19 15:00:25.672842,10.35,2.61,-2.5300000000000002,0.5519603759432067,1.4529866022852793,5.766131516276266
2025-03-19 15:00:25.732610,9.64,17.490000000000002,-9.64,-0.36324665057131983,1.213003830136059,4.027347248976915
2025-03-19 15:00:25.793289,4.25,23.8,-4.01,-1.0297442586766545,-0.5585053606381855,-0.9261153343394911
2025-03-19 15:00:25.853921,7.88,15.82,-21.31,1.5304355878425278,-0.26616271092913524,-2.3049254434150113
2025-03-19 15:00:25.914759,0.64,1.61,-0.59,1.2522737383059315,-1.2140946609185554,-1.7911441448591807
2025-03-19 15:00:25.973614,0.28,-0.01,0.21,0.11017390903214205,-0.6261368691529657,-0.928296995904484
2025-03-19 15:00:26.033324,-0.15,-1.6400000000000001,-0.8200000000000001,-0.41996985126113556,-0.12435470920459599,-0.7832165018324554
2025-03-19 15:00:26.093863,0.46,-1.21,-0.27,-0.44178646691106466,-0.11017390903214205,-0.717766654882668
2025-03-19 15:00:26.155145,1.73,-0.16,0.26,-0.6381360077604268,-0.09926560120717749,-0.6359543461954338
2025-03-19 15:00:26.215484,1.74,-0.79,1.22,-0.23561944901923448,-0.14944381720201447,-1.189005552921137
2025-03-19 15:00:26.274555,3.52,-2.12,1.74,0.11453723216212788,-0.20616701789183017,-2.117302548825621
2025-03-19 15:00:26.334507,6.57,-5.93,1.83,-0.3490658503988659,-0.5388704065532492,-3.2190416391470418
2025-03-19 15:00:26.395413,7.49,-21.11,2.63,0.6730425928003133,-0.6795875774952921,-3.983714017677057
2025-03-19 15:00:26.456124,2.69,-8.66,-3.98,-0.17016960206944712,-0.4603305902135044,-2.2132956576853093
2025-03-19 15:00:26.516561,-3.11,-12.33,3.5500000000000003,-0.9195703496445123,0.5246896063807953,0.7952156404399164
2025-03-19 15:00:26.576179,-2.71,-9.84,1.98,0.39051742013373125,0.9064803802545549,3.344487179134134
2025-03-19 15:00:26.635629,-0.06,-6.55,2.35,0.545415391248228,1.1475539831862718,5.0810897848684915
2025-03-19 15:00:26.695561,6.15,-0.65,0.34,0.2650718801466388,1.6558811278296202,5.8555796404409755
2025-03-19 15:00:26.756084,12.83,16.57,-5.71,0.4166973589136462,1.2948161388232933,5.018912430266194
2025-03-19 15:00:26.816708,6.0,27.79,-13.77,-0.25416357232167425,-0.22362031041177347,0.6861325621902709
2025-03-19 15:00:26.876775,2.57,-9.23,11.32,0.4821472058634335,0.3174317577064687,-2.548180707911721
2025-03-19 15:00:26.935456,-0.8200000000000001,4.57,-1.11,1.1660981064887115,-1.8762289458939043,-1.7987799603366559
2025-03-19 15:00:26.994314,-0.31,0.24,0.06,-0.23671027980173096,-0.5105088062083414,-1.0842857978014773
2025-03-19 15:00:27.054919,-0.33,-1.04,-0.35000000000000003,-0.18216874067690814,-0.09381144729469522,-0.8235772407848243
2025-03-19 15:00:27.115268,0.11,-0.25,0.38,-0.28034351110158917,-0.06654067773228381,-0.6283185307179586
2025-03-19 15:00:27.176901,0.01,-0.4,0.34,-0.4036073895236887,-0.1341721862470641,-0.6359543461954338
2025-03-19 15:00:27.236425,1.28,-0.93,0.51,-0.17016960206944712,-0.15271630954950383,-1.0581058590215622
2025-03-19 15:00:27.295308,3.29,-1.1400000000000001,2.24,-0.025089107997418487,-0.21162117180431245,-1.8838647613713795
2025-03-19 15:00:27.355877,-321.45,-5.09,2.3000000000000003,0.01090830782496456,-0.459239759431008,-2.9485156050879207
2025-03-19 15:00:27.416685,9.3,-19.85,2.2600000000000002,-0.3959715740462135,-1.038470904936626,-3.8004544462176524
2025-03-19 15:00:27.478010,4.58,-6.79,-1.24,1.0373800741541297,-0.2945243112740431,-2.2449297503777066
2025-03-19 15:00:27.537867,-3.2600000000000002,-9.34,1.77,-0.7570365630525404,0.2083486794568231,0.7483099167925688
2025-03-19 15:00:27.596750,-2.07,-10.35,1.29,0.2825251726665821,0.8584838258247108,3.3052172709642615
2025-03-19 15:00:27.657197,1.55,-6.25,1.94,-0.04581489286485115,1.1900963837036334,5.0516373537410875
2025-03-19 15:00:27.717694,8.14,-0.43,-0.24,-0.272707695624114,1.3548118318605984,5.756314039233798
2025-03-19 15:00:27.778149,11.63,16.75,-2.34,0.6043202535030366,1.0177451200691934,4.924010152189002
2025-03-19 15:00:27.836825,5.25,32.4,-8.98,-0.4068798818711781,-0.10144726277217041,1.6198837120072371
2025-03-19 15:00:27.895436,13.99,-25.830000000000002,21.04,-1.3646293089030663,-0.990474350506782,-2.9343348049154665
2025-03-19 15:00:27.955960,-0.7000000000000001,4.97,-1.53,0.48432886742842646,-0.8290313946973066,-1.983130362578557
2025-03-19 15:00:28.016300,0.19,0.47000000000000003,-0.17,-0.3076142806640006,-0.49632800603588745,-0.8333947178272924
2025-03-19 15:00:28.076624,-0.22,-1.06,-0.59,-0.2792526803190927,-0.1734420944169365,-0.6435901616729091
2025-03-19 15:00:28.136570,-0.02,-0.8,-0.04,-0.2650718801466388,-0.14508049407202864,-0.7090400086226963
2025-03-19 15:00:28.196236,0.35000000000000003,-0.89,0.0,-0.4286964975211072,-0.1407171709420428,-0.8508480103472357
2025-03-19 15:00:28.256233,0.9500000000000001,-0.08,1.24,-0.32615840396644036,-0.12435470920459599,-1.0493792127615906
2025-03-19 15:00:28.317523,3.29,-1.25,1.44,0.16144295580947549,-0.20507618710933373,-1.8173240836390956
2025-03-19 15:00:28.378378,5.67,-4.43,1.74,0.13744467859455345,-0.39706240482870997,-2.7838001569309556
2025-03-19 15:00:28.438140,11.18,-18.16,1.6500000000000001,-1.485711525760173,-0.978475211899321,-3.8473601698650004
2025-03-19 15:00:28.497924,6.8100000000000005,1.36,-3.47,0.21925698728178766,-0.8901179185171081,-3.1088677301148997
2025-03-19 15:00:28.557799,-2.7800000000000002,-9.42,1.77,-1.1693705988362009,0.1712604328519436,0.030543261909900768
2025-03-19 15:00:28.618839,-3.83,-9.950000000000001,0.97,0.4821472058634335,0.8323038870447959,2.6256296934689694
2025-03-19 15:00:28.679088,0.24,-7.5,0.75,0.4046982203061852,1.1355548445788106,4.661119933607356
2025-03-19 15:00:28.738133,6.91,-1.9000000000000001,0.26,-0.14944381720201447,1.2817261694333357,5.625414345334224
2025-03-19 15:00:28.796908,11.19,10.43,-3.48,-0.5268712679457882,1.0068368122442288,5.40179403492245
2025-03-19 15:00:28.855903,7.33,26.89,-11.02,-0.6435901616729091,0.2203478180642841,1.9918570088385286
2025-03-19 15:00:28.916453,2.47,6.61,6.640000000000001,-0.7068583470577035,-0.9468411192069238,-2.8579766501407144
2025-03-19 15:00:28.977360,7.05,-5.44,-9.24,0.9773843811168246,-1.2239121379610236,-1.947132946756174
2025-03-19 15:00:29.038748,-0.18,0.67,1.1300000000000001,-0.6239552075879728,-0.5759586531581288,-1.2708178616083712
2025-03-19 15:00:29.097602,-0.29,-1.1400000000000001,0.34,0.05126904677733343,-0.2596177262341565,-0.7995789635699022
2025-03-19 15:00:29.156466,0.36,-0.01,0.66,-0.13853550937704992,-0.13199052468207118,-0.7886706557449377
2025-03-19 15:00:29.217025,0.06,-0.33,-0.09,-0.4385139745635753,-0.11344640137963143,-0.6904958853202566
2025-03-19 15:00:29.277396,0.61,-0.32,0.21,-0.48651052899341934,-0.14289883250703572,-0.8235772407848243
2025-03-19 15:00:29.337890,2.49,-0.32,2.05,-0.358883327441334,-0.12980886311707826,-1.461713248545251
2025-03-19 15:00:29.396684,4.19,-1.3800000000000001,3.0100000000000002,-0.02945243112740431,-0.30325095753401476,-2.279836335417593
2025-03-19 15:00:29.455399,11.26,-12.55,1.1400000000000001,-0.6305001922829515,-0.4723297288209654,-3.457933580513765
2025-03-19 15:00:29.516494,7.97,1.23,3.33,0.14180800172453928,-0.19525871006686563,-3.3979378874764605
2025-03-19 15:00:29.577726,-0.93,-18.44,3.6,-0.3010692959690218,-0.038179077387375956,-0.9392053037294485
2025-03-19 15:00:29.638393,-3.52,-10.08,2.56,0.028361600344907856,0.433059820651093,2.083486794568231
2025-03-19 15:00:29.697095,-1.1400000000000001,-9.370000000000001,2.16,0.7363107781851078,0.9152070265145266,3.8931750627298514
2025-03-19 15:00:29.755717,3.2,-4.26,1.51,0.45705809786601503,1.3951725708129672,5.317800064670223
2025-03-19 15:00:29.816412,11.15,6.82,-3.87,-0.6086835766330224,1.32972272386318,5.760677362363784
2025-03-19 15:00:29.876956,8.48,26.47,-9.66,-0.4494222823885399,0.8672104720846825,3.0706886527275237
2025-03-19 15:00:29.937906,3.06,7.11,5.24,-0.05235987755982989,-0.7068583470577035,-2.636538001293934
2025-03-19 15:00:29.997569,6.09,-9.15,-6.78,1.261000384565903,-1.8685931304164292,-2.3409228592373945
2025-03-19 15:00:30.056315,-0.45,0.33,1.45,-0.7068583470577035,-0.3785182815262702,-1.31117860056074
2025-03-19 15:00:30.116325,1.3,-0.49,0.36,0.1461713248545251,-0.24652775684419906,-0.6403176693254197
2025-03-19 15:00:30.177051,0.31,-0.56,0.8300000000000001,-0.2977968036215325,0.001090830782496456,-0.6621342849753488
2025-03-19 15:00:30.237286,-0.16,-1.28,-0.12,-0.42215151282612845,-0.09381144729469522,-0.6566801310628665
2025-03-19 15:00:30.296786,0.61,-1.29,0.5,-0.2585268954516601,-0.16035212502697901,-0.954476934684399
2025-03-19 15:00:30.356604,1.17,-1.6400000000000001,0.03,-0.5312345910757741,-0.0719948316447661,-1.2599095537834066
2025-03-19 15:00:30.418947,3.5,-1.07,3.31,0.05235987755982989,-0.20943951023931956,-2.1827523957754082
2025-03-19 15:00:30.479747,13.59,-9.48,1.49,-0.3097959422289935,-0.4919646829059016,-3.3881204104339924
2025-03-19 15:00:30.539995,0.96,-11.71,-0.13,-0.6959500392327389,-0.5726861608106394,-3.7382770916153545
2025-03-19 15:00:30.599382,1.26,-18.02,2.2,0.19962203319685143,-0.03381575425739013,-1.1759155835311796
2025-03-19 15:00:30.658204,-4.39,-9.23,1.53,-0.5977752688080579,0.37960911230876665,1.3646293089030663
2025-03-19 15:00:30.717180,-3.67,-9.11,0.46,0.8137597637423561,0.8530296719122286,3.5092026272910988
2025-03-19 15:00:30.778732,1.87,-6.4,0.67,0.4428772976935611,1.1486448139687682,4.964370891141371
2025-03-19 15:00:30.840290,7.4,-0.29,2.68,0.04799655442984406,1.3144510929082294,5.508695451607102
2025-03-19 15:00:30.900010,9.88,7.7700000000000005,0.35000000000000003,0.5617778529856748,1.2762720155208536,5.026548245743669
2025-03-19 15:00:30.958779,4.5600000000000005,25.44,-4.69,-1.4846206949776766,0.45160394395353276,1.6111570657472654
2025-03-19 15:00:31.017863,2.24,9.9,0.34,0.05235987755982989,-0.5792311455056182,-1.9907661780560322
2025-03-19 15:00:31.078100,4.88,28.46,-1.8800000000000001,-0.753764070705051,0.8279405639148101,-2.315833751239976
2025-03-19 15:00:31.138438,0.26,0.39,1.76,0.8824821030396329,-1.054833366674073,-1.215185491701052
2025-03-19 15:00:31.199686,0.34,1.29,1.71,-0.5650503453331642,-0.29670597283903605,-0.7166758241001716
2025-03-19 15:00:31.259498,-0.91,-1.95,-0.87,-0.17671458676442586,-0.3425208657038872,-0.4657847441259867
2025-03-19 15:00:31.318334,0.22,-0.66,1.23,-0.020725784867432664,-0.4232423436086249,-0.6228643768054763
2025-03-19 15:00:31.378910,-0.07,-1.69,-0.09,-0.12980886311707826,-0.35561083509384467,-0.9577494270318884
2025-03-19 15:00:31.439254,0.03,-0.86,0.6900000000000001,-0.03381575425739013,-0.3436116964863836,-1.090830782496456
2025-03-19 15:00:31.499777,0.14,-1.25,0.37,0.06544984694978735,-0.30870511144649704,-1.2282754610910094
2025-03-19 15:00:31.558550,1.8,-0.03,1.72,0.4363323129985824,-0.2083486794568231,-1.3973542323779602
2025-03-19 15:00:31.618565,4.18,-2.93,1.54,0.3959715740462135,-0.4014257279586958,-1.9384063004962022
2025-03-19 15:00:31.679746,11.32,-11.39,4.1,-1.870774791981422,-0.815941425307349,-3.320488901919212
2025-03-19 15:00:31.740337,0.6900000000000001,-2.23,2.0,-0.009817477042468103,-0.6468626540203984,-2.3769202750597778
2025-03-19 15:00:31.800969,-4.2700000000000005,-11.02,3.25,-1.9907661780560322,0.19416787928436915,0.3076142806640006
2025-03-19 15:00:31.859732,-3.54,-9.27,2.94,0.5006913291658733,0.8170322560898455,2.299471289502529
2025-03-19 15:00:31.918397,0.14,-6.74,2.12,0.8213955792198313,1.3264502315156905,4.066617157146788
2025-03-19 15:00:31.978527,6.1000000000000005,-1.05,2.87,0.4145156973486533,1.7398750980818474,4.807291258461881
2025-03-19 15:00:32.039849,9.0,8.040000000000001,-2.99,-0.39706240482870997,1.6493361431346414,4.444044607890562
2025-03-19 15:00:32.101554,4.3,21.52,-7.4,-1.3068152774307542,0.5279620987282847,1.8620481457214504
2025-03-19 15:00:32.160357,3.12,14.11,-5.37,0.08399397025222712,-0.9261153343394911,-2.17293491873294
2025-03-19 15:00:32.218924,10.09,1.6300000000000001,-14.13,1.249001245958442,-1.0581058590215622,-2.234021442552742
2025-03-19 15:00:32.279526,-0.35000000000000003,0.47000000000000003,-0.16,-0.31634092692397225,-1.0275625971116615,-1.066832505281534
2025-03-19 15:00:32.340137,-0.23,-1.22,0.33,-0.10799224746714914,-0.6206827152404835,-0.35561083509384467
2025-03-19 15:00:32.400375,-0.18,-0.21,0.64,-0.1461713248545251,-0.19744037163185854,-0.4439681284760576
2025-03-19 15:00:32.460202,-0.24,-0.25,0.73,-0.05235987755982989,-0.13199052468207118,-0.3916082509162277
2025-03-19 15:00:32.521211,-0.19,-0.99,0.25,0.05235987755982989,-0.22580197197676638,-0.5999569303730508
2025-03-19 15:00:32.581429,0.28,-1.23,0.4,0.20507618710933373,-0.272707695624114,-0.5879577917655898
2025-03-19 15:00:32.641700,0.22,-0.72,0.78,-0.007635815477475192,-0.21271200258680892,-0.6414085001079161
2025-03-19 15:00:32.702216,0.88,-1.35,0.33,-0.017453292519943295,-0.2083486794568231,-0.9457502884244273
2025-03-19 15:00:32.761515,2.2800000000000002,-0.6900000000000001,1.82,0.2825251726665821,-0.2628902185816459,-1.2708178616083712
2025-03-19 15:00:32.821192,2.83,-2.24,1.6500000000000001,0.13744467859455345,-0.31852258848896514,-1.700605189911975
2025-03-19 15:00:32.881535,6.46,-3.91,3.79,-0.1712604328519436,-0.4145156973486533,-2.444551783574558
2025-03-19 15:00:32.942234,3.2800000000000002,-16.51,3.47,-0.04036073895236887,-0.7428557628800865,-3.193952531149623
2025-03-19 15:00:33.002395,2.02,-17.94,2.04,0.7864889941799448,-0.14835298641951802,-1.6493361431346414
2025-03-19 15:00:33.061932,-2.58,-9.24,3.56,-0.5705044992456465,0.5028729907308662,0.6621342849753488
2025-03-19 15:00:33.120692,-2.82,-8.65,2.44,0.6632251157578453,1.1453723216212788,2.9277898202204877
2025-03-19 15:00:33.179957,1.72,-5.3500000000000005,2.56,0.27598018797160334,1.7355117749518614,4.432045469283101
2025-03-19 15:00:33.241635,6.96,-2.29,0.04,-0.581412807070611,1.9962203319685143,4.943645106273938
2025-03-19 15:00:33.302445,8.370000000000001,11.39,-1.62,0.08944812416470939,1.1922780452686264,4.3327798680759235
2025-03-19 15:00:33.362415,3.47,20.27,-10.620000000000001,0.4341506514335895,0.3490658503988659,1.545707218797478
2025-03-19 15:00:33.421321,2.19,9.93,1.18,-0.34470252726888007,-0.4068798818711781,-2.360557813322331
2025-03-19 15:00:33.480059,7.390000000000001,0.25,-14.05,0.22252947962927702,-2.007128639793479,-1.8129607605091098
2025-03-19 15:00:33.541545,-0.09,1.78,-0.36,-0.6588617926278594,-0.8726646259971648,-1.1464631524037752
2025-03-19 15:00:33.601407,-0.14,-0.22,0.81,0.25416357232167425,-0.48432886742842646,-0.7046766854927106
2025-03-19 15:00:33.661807,-0.07,0.49,0.88,-0.018544123302439753,-0.17453292519943295,-0.4166973589136462
2025-03-19 15:00:33.718678,-0.14,-0.34,0.37,-0.02945243112740431,-0.12326387842209953,-0.2617993877991494
2025-03-19 15:00:33.775369,1.6600000000000001,-1.1300000000000001,0.38,-0.10035643198967395,-0.14944381720201447,-0.4505131131710363
2025-03-19 15:00:33.833304,1.41,-1.58,0.6,0.018544123302439753,-0.18544123302439752,-1.1464631524037752
2025-03-19 15:00:33.892953,7.2700000000000005,-3.37,2.64,0.7199483164476609,-0.5541420375081997,-2.440188460444572
2025-03-19 15:00:33.953596,4.13,-8.55,2.9,0.025089107997418487,-0.8497571795647392,-2.8459775115332535
2025-03-19 15:00:34.015074,-7.23,-19.1,7.75,-0.8824821030396329,0.16253378659197193,0.38288160465625604
2025-03-19 15:00:34.074930,-2.99,-6.15,5.39,0.07526732399225546,1.4529866022852793,3.009602128907722
2025-03-19 15:00:34.133827,4.05,3.72,-1.24,1.4748032179352084,1.6384278353096768,3.4873860116411697
2025-03-19 15:00:34.194315,3.92,13.24,-8.77,1.399535893942953,0.8366672101747817,1.9154988540637767
2025-03-19 15:00:34.255249,0.08,12.07,-8.120000000000001,-1.0199267816341864,-0.5672320068981571,-1.1181015520588673
2025-03-19 15:00:34.315987,0.84,4.16,4.84,-0.025089107997418487,-0.9533861039019025,-0.980656873464314
2025-03-19 15:00:34.374827,-0.63,-0.92,-0.93,-0.09381144729469522,-0.3981532356112064,-0.4428772976935611
2025-03-19 15:00:34.433815,0.11,-0.61,0.58,0.35561083509384467,-0.3567016658763411,-0.16253378659197193
2025-03-19 15:00:34.494476,0.03,-0.43,0.75,-0.09926560120717749,-0.1407171709420428,-0.32179508083645453
2025-03-19 15:00:34.554843,0.02,-0.65,0.73,-0.1908953869368798,-0.21162117180431245,-0.5181446216858165
2025-03-19 15:00:34.616362,0.56,-0.67,0.33,0.2683443724941282,-0.2617993877991494,-0.8868454261696187
2025-03-19 15:00:34.675367,1.3900000000000001,0.18,1.78,0.11344640137963143,-0.19962203319685143,-0.9719302272043423
2025-03-19 15:00:34.734133,2.37,-1.48,1.1,0.18762289458939044,-0.16580627893946132,-1.3329952162106693
2025-03-19 15:00:34.794871,5.54,-2.77,2.11,0.20180369476184434,-0.15162547876700738,-2.0005836550985
2025-03-19 15:00:34.855550,7.24,-11.790000000000001,1.6500000000000001,-0.24652775684419906,-0.559596191420682,-3.0183287751676935
2025-03-19 15:00:34.916347,3.46,-10.84,0.68,0.6446809924554054,-0.4799655442984406,-2.815434249623353
2025-03-19 15:00:34.974981,-1.36,-12.09,2.34,0.3839724354387525,0.0719948316447661,-0.3294308963139297
2025-03-19 15:00:35.033631,-2.99,-10.64,2.7800000000000002,0.5017821599483697,0.6490443155853913,2.261292212115153
2025-03-19 15:00:35.093454,1.68,-6.8,1.6,0.5857761302005968,1.1933688760511227,4.434227130848093
2025-03-19 15:00:35.153995,7.19,5.0600000000000005,-3.5700000000000003,1.0439250588491085,1.4824390334126836,5.412702342747415
2025-03-19 15:00:35.214264,6.66,23.05,-7.07,-1.610066234964769,0.8257589023498172,2.9441522819579347
2025-03-19 15:00:35.274748,0.37,27.05,-0.48,0.05781403147231216,-0.3959715740462135,-1.2839078309983287
2025-03-19 15:00:35.334706,-2.74,3.5300000000000002,2.0100000000000002,1.2119129993535627,-1.0831949670189809,-1.4769848795002014
2025-03-19 15:00:35.394884,1.1300000000000001,-0.06,0.68,-0.08508480103472356,-0.42978732830360367,-0.5901394533305827
2025-03-19 15:00:35.455127,-0.58,-1.16,-0.66,-0.08617563181722002,-0.07308566242726255,-0.4461497900410505
2025-03-19 15:00:35.515991,-0.16,-0.44,0.54,-0.04036073895236887,0.06326818538479445,-0.37960911230876665
2025-03-19 15:00:35.576428,-0.23,-0.36,0.49,-0.16471544815696484,0.06763150851478027,-0.4188790204786391
2025-03-19 15:00:35.636291,0.0,-0.41000000000000003,0.6,-0.1090830782496456,0.11344640137963143,-0.5410520681182421
2025-03-19 15:00:35.695954,0.46,-0.46,0.75,-0.10362892433716332,0.1538071403320003,-0.7395832705325971
2025-03-19 15:00:35.756551,1.25,-0.97,0.56,-0.1407171709420428,0.13744467859455345,-1.1333731830138178
2025-03-19 15:00:35.817054,7.36,-2.9,1.36,0.055632369907319255,-0.1461713248545251,-1.9536779314511525
2025-03-19 15:00:35.877636,5.3,-6.11,1.6300000000000001,-0.7057675162752071,-0.7690357016600015,-2.4150993524471533
2025-03-19 15:00:35.937406,-2.22,-8.67,-2.67,-1.5053464798451093,-0.5759586531581288,-1.0853766285839737
2025-03-19 15:00:35.996720,-3.41,-7.23,1.31,-1.4169891864628963,-0.19634954084936207,0.8006697943523987
2025-03-19 15:00:36.057354,-1.79,-5.07,1.98,-0.8944812416470939,0.008726646259971648,2.189297380470387
2025-03-19 15:00:36.117757,0.61,-2.3000000000000003,2.68,-0.3785182815262702,0.3327033886614191,2.777255172235977
2025-03-19 15:00:36.177831,2.07,0.5,3.74,-0.28034351110158917,0.5257804371632918,2.93324397413297
2025-03-19 15:00:36.236543,3.27,2.06,-0.39,0.6119560689805118,0.5312345910757741,2.6059947393840335
2025-03-19 15:00:36.296000,1.87,3.35,-0.39,-0.17671458676442586,0.18980455615438332,1.8456856839840035
2025-03-19 15:00:36.357430,0.04,6.51,0.21,-0.5028729907308662,0.0545415391248228,0.8203047484373349
2025-03-19 15:00:36.417599,-0.38,6.12,1.87,0.5737769915931359,-0.14508049407202864,-0.1461713248545251
2025-03-19 15:00:36.478128,0.6900000000000001,6.25,0.18,1.3395402009056478,-0.22580197197676638,-0.8104872713948668
2025-03-19 15:00:36.536985,6.45,-14.790000000000001,-2.27,0.24870941840919197,-0.6566801310628665,-0.5552328682906961
2025-03-19 15:00:36.596079,-1.01,0.67,1.34,-0.4854196982109229,-0.32288591161895097,-0.7973973020049093
2025-03-19 15:00:36.656839,-0.64,-1.29,0.24,0.05126904677733343,-0.37306412761378793,-0.10690141668465268
2025-03-19 15:00:36.717237,-0.07,-0.3,0.46,-0.28361600344907856,-0.07963064712224129,-0.1734420944169365
2025-03-19 15:00:36.777731,-0.14,-0.62,0.68,-0.02945243112740431,-0.14726215563702155,-0.15707963267948966
2025-03-19 15:00:36.838809,-0.18,-0.73,0.31,-0.04363323129985824,0.0545415391248228,-0.1734420944169365
2025-03-19 15:00:36.898977,-0.08,-0.26,0.81,-0.10253809355466686,0.2977968036215325,-0.09708393964218458
2025-03-19 15:00:36.959191,-0.16,-0.47000000000000003,0.8,-0.02399827721492203,0.24107360293171676,-0.055632369907319255
2025-03-19 15:00:37.019510,-0.14,-0.65,0.56,0.13308135546456762,0.07090400086226964,-0.21707532571679475
2025-03-19 15:00:37.079995,-0.1,-0.76,0.6,0.15926129424448257,-0.1308996938995747,-0.5475970528132209
2025-03-19 15:00:37.138783,-0.12,-0.68,0.23,0.13526301702956053,-0.11780972450961724,-0.8486663487822428
2025-03-19 15:00:37.197667,0.24,-0.9400000000000001,0.21,0.26725354171163174,0.030543261909900768,-1.3428126932531372
2025-03-19 15:00:37.258796,4.17,0.78,1.94,0.22362031041177347,0.27707101875409984,-1.8685931304164292
2025-03-19 15:00:37.320185,7.95,-4.34,4.26,0.8017606251348951,0.08726646259971647,-2.7478027411085724
2025-03-19 15:00:37.380829,1.25,-8.68,-1.6500000000000001,3.280128162966843,0.2912518189265537,-2.6070855701665296
2025-03-19 15:00:37.439665,-2.72,-13.9,-2.54,3.4721143806862194,1.0581058590215622,-0.7123125009701857
2025-03-19 15:00:37.498350,-3.38,-9.06,-1.08,1.6635169433070953,1.5653421728824144,1.1737339219661866
2025-03-19 15:00:37.558916,-0.66,-6.5200000000000005,-4.36,2.6572637861613666,1.7835083293817056,2.8797932657906435
2025-03-19 15:00:37.619099,4.67,-1.19,-7.930000000000001,3.069597821945027,1.4344424789828396,3.91826417072727
2025-03-19 15:00:37.680023,5.04,11.23,-7.36,1.7998707911191523,0.40033489717619936,3.5866516128483474
2025-03-19 15:00:37.739733,2.0,16.51,-5.64,0.6414085001079161,-0.008726646259971648,0.8366672101747817
2025-03-19 15:00:37.798398,0.04,1.09,6.19,1.215185491701052,-0.6719517620178169,-1.371174293598045
2025-03-19 15:00:37.857613,-0.65,-4.74,5.08,0.18544123302439752,-0.866119641302186,-1.1017390903214206
2025-03-19 15:00:37.917978,0.08,0.38,0.12,0.08835729338221293,-0.42978732830360367,-0.5377795757707527
2025-03-19 15:00:37.978657,-0.14,-0.11,-0.68,0.031634092692397225,-0.2585268954516601,-0.65558930028037
2025-03-19 15:00:38.038634,-0.14,0.75,-0.07,0.21707532571679475,-0.08726646259971647,-1.00029182754925
2025-03-19 15:00:38.098027,-0.15,1.07,0.52,0.42215151282612845,-0.07853981633974483,-1.090830782496456
2025-03-19 15:00:38.157963,1.1500000000000001,0.27,0.15,1.1464631524037752,-0.2683443724941282,-1.5511613727099605
2025-03-19 15:00:38.218257,2.46,0.43,0.27,0.6348635154129374,-0.5028729907308662,-1.9711312239710959
2025-03-19 15:00:38.278563,10.19,-3.15,0.38,0.02945243112740431,-0.8715737952146683,-3.0488720370775946
2025-03-19 15:00:38.338832,1.68,-14.21,3.47,-1.100648259538924,-1.4846206949776766,-3.7404587531803477
2025-03-19 15:00:38.397555,-9.950000000000001,-16.45,3.97,-0.3239767424014474,0.14944381720201447,-0.5388704065532492
2025-03-19 15:00:38.456360,-9.09,-11.41,0.05,0.061086523819801536,1.2173671532660448,2.2263856270752664
2025-03-19 15:00:38.517218,-3.6,-2.89,-0.3,0.7864889941799448,1.3199052468207118,4.439681284760576
2025-03-19 15:00:38.578509,4.01,12.67,1.8800000000000001,0.8508480103472357,0.6763150851478027,4.228060112956263
2025-03-19 15:00:38.639137,8.08,18.46,-4.89,2.0398535632683727,1.6613352817421025,2.057306855788316
2025-03-19 15:00:38.697955,3.92,8.74,-7.16,0.8650288105196896,0.015271630954950384,0.6337726846304409
2025-03-19 15:00:38.756951,7.930000000000001,-21.47,-3.11,-3.234313270101992,-3.591014935978333,1.4835298641951802
2025-03-19 15:00:38.817632,5.5600000000000005,-5.58,4.15,1.4726215563702156,-0.20507618710933373,-1.296997800388286
2025-03-19 15:00:38.878068,9.19,-4.79,3.27,1.2762720155208536,-0.4461497900410505,-1.5871587885323435
2025-03-19 15:00:38.938988,0.01,1.96,-0.76,0.2454369260617026,0.14726215563702155,-0.7035858547102141
2025-03-19 15:00:38.998859,0.64,0.13,0.27,0.07963064712224129,0.07635815477475191,-0.5530512067257032
2025-03-19 15:00:39.057580,0.44,0.2,-0.58,0.12217304763960307,-0.09599310885968812,-0.7101308394051928
2025-03-19 15:00:39.118215,0.62,0.8300000000000001,1.09,0.2748893571891069,-0.3141592653589793,-1.485711525760173
2025-03-19 15:00:39.179670,10.9,-3.23,1.4000000000000001,0.4985096676008804,-0.5355979142057599,-2.4914575072219054
2025-03-19 15:00:39.240413,8.17,-17.91,4.5200000000000005,-0.7068583470577035,-1.9165896848462731,-4.926191813753995
2025-03-19 15:00:39.299590,-10.64,-27.080000000000002,6.61,0.11453723216212788,-0.4177881896961426,-0.13853550937704992
2025-03-19 15:00:39.358217,-9.08,-13.92,-0.04,0.6424993308904126,1.4486232791552935,2.9768772054328285
2025-03-19 15:00:39.418755,2.61,-6.32,-1.41,-1.7420567596468401,1.2260937995260166,5.059273169218563
2025-03-19 15:00:39.480006,15.19,14.41,4.57,-0.5181446216858165,0.22471114119426994,5.337435018755159
2025-03-19 15:00:39.541999,11.44,11.72,-5.93,1.8664114688514362,1.2348204457859882,3.535382566071014
2025-03-19 15:00:39.600582,-1.01,22.59,-1.21,-3.490658503988659,-0.7024950239277177,-0.028361600344907856
2025-03-19 15:00:39.659332,17.42,-22.01,0.05,0.5235987755982988,-3.428481149386361,0.7668540400950086
2025-03-19 15:00:39.719041,6.44,-11.68,-4.8100000000000005,0.9370236421644557,-0.2901609881440573,-2.031126917008401
2025-03-19 15:00:39.779027,0.24,0.76,-0.52,0.6359543461954338,-0.3937899124812206,-1.1966413683986121
2025-03-19 15:00:39.840023,-1.07,1.6300000000000001,-1.25,-0.3141592653589793,0.2650718801466388,-0.46469391334349025
2025-03-19 15:00:39.900220,0.41000000000000003,0.59,-0.03,-0.35124751196385884,0.22689280275926285,0.08072147790473774
2025-03-19 15:00:39.960124,-0.54,0.1,-0.8200000000000001,-0.35452000431134817,0.08944812416470939,-0.1341721862470641
2025-03-19 15:00:40.019533,0.39,0.77,0.71,-0.15271630954950383,-0.0272707695624114,-0.6294093615004551
2025-03-19 15:00:40.080151,2.65,-0.91,-0.07,0.5661411761156606,-0.18216874067690814,-1.4802573718476908
2025-03-19 15:00:40.140949,10.370000000000001,-2.91,4.22,0.16253378659197193,-0.6544984694978736,-2.775073510670984
2025-03-19 15:00:40.201692,2.64,-16.21,2.58,-0.37088246604879505,-0.9915651812892785,-3.5375642276360066
2025-03-19 15:00:40.261585,-0.93,-14.98,1.31,0.061086523819801536,-0.23343778745424157,-0.8606654873897037
2025-03-19 15:00:40.320533,-5.79,-8.97,0.61,-0.9424777960769379,0.11235557059713497,1.5806138038373647
2025-03-19 15:00:40.381176,-3.85,-6.05,0.92,-1.2446379228284563,0.5759586531581288,3.6161040439757515
2025-03-19 15:00:40.441465,-0.16,4.44,2.7800000000000002,-0.5377795757707527,0.7341291166201148,4.130976173314079
2025-03-19 15:00:40.501622,-0.66,14.870000000000001,0.13,0.7635815477475192,0.6359543461954338,3.148137638284772
2025-03-19 15:00:40.560403,-2.13,12.02,-5.92,1.19118721448613,0.2923426497090502,0.7941248096574199
2025-03-19 15:00:40.619903,-0.36,10.73,-5.95,0.30870511144649704,-0.30543261909900765,-0.6239552075879728
2025-03-19 15:00:40.680987,1.1,4.68,-2.41,-0.9752027195518317,-0.8835729338221293,-1.3537210010781018
2025-03-19 15:00:40.741520,0.99,-17.71,1.35,1.7093318361719465,0.05999569303730508,-0.519235452468313
2025-03-19 15:00:40.801890,23.89,-19.62,13.31,-0.031634092692397225,-0.4079707126536745,-2.194751534382869
2025-03-19 15:00:40.860689,-6.0600000000000005,-0.78,-6.71,0.2454369260617026,-0.032724923474893676,-1.054833366674073
2025-03-19 15:00:40.919616,0.6,0.27,0.39,0.37306412761378793,0.07090400086226964,-0.7330382858376184
2025-03-19 15:00:40.980103,0.12,0.41000000000000003,0.09,0.04799655442984406,-0.18544123302439752,-1.030835089459151
2025-03-19 15:00:41.041116,2.2600000000000002,-0.17,1.33,0.032724923474893676,-0.5203262832508095,-1.399535893942953
2025-03-19 15:00:41.102115,4.39,-1.1,-0.39,-0.5083271446433485,-1.040652566501619,-2.1194842103906137
2025-03-19 15:00:41.161001,16.01,-5.97,6.07,-1.2064588454410803,-1.4944381720201447,-3.4710235499037227
2025-03-19 15:00:41.219561,-4.69,-7.3100000000000005,1.22,0.5388704065532492,-1.4540774330677757,-2.720531971546161
2025-03-19 15:00:41.280164,-9.17,-16.18,5.86,-0.8672104720846825,0.6523168079328807,0.7406741013150936
2025-03-19 15:00:41.340551,-7.34,-10.82,1.04,-0.1090830782496456,1.538071403320003,3.251766562621935
2025-03-19 15:00:41.400950,0.54,0.52,-0.78,-1.5806138038373647,1.0068368122442288,4.730933103687129
2025-03-19 15:00:41.461462,8.97,14.75,1.45,0.5061454830783556,0.5301437602932776,4.525856916577796
2025-03-19 15:00:41.521173,6.47,17.02,-8.9,0.4930555136883981,0.9446594576419308,1.5969762655748114
2025-03-19 15:00:41.581837,-15.3,16.23,-6.91,-0.6457718232379019,-0.753764070705051,-0.5268712679457882
2025-03-19 15:00:41.641779,6.94,-0.76,0.36,1.2762720155208536,-0.17889624832941878,-0.8715737952146683
2025-03-19 15:00:41.702285,7.23,-8.36,6.92,1.1868238913561442,-0.44178646691106466,-1.9776762086660746
2025-03-19 15:00:41.761019,-0.64,0.89,-0.37,0.1407171709420428,-0.06326818538479445,-1.2435470920459597
2025-03-19 15:00:41.819709,0.79,1.62,0.32,0.3752457891787809,-0.011999138607461015,-0.7952156404399164
2025-03-19 15:00:41.879033,2.4,-0.65,0.07,-0.21925698728178766,-0.49741883681838395,-1.3962634015954636
2025-03-19 15:00:41.940526,6.68,-0.8,0.9500000000000001,-0.9621127501618741,-1.064650843716541,-1.9656770700586137
2025-03-19 15:00:42.000993,9.1,-9.06,3.64,-1.227184630308513,-1.8511398378964858,-3.540836719983496
2025-03-19 15:00:42.060948,-7.8,-6.71,1.9000000000000001,-1.1540989678812503,-1.1311915214488248,-1.8358682069415353
2025-03-19 15:00:42.119618,-8.73,-15.9,2.64,0.8955720724295904,1.0559241974565694,1.5969762655748114
2025-03-19 15:00:42.178227,-4.65,-8.620000000000001,0.07,-0.5825036378531074,1.263182046130896,3.663009767623099
2025-03-19 15:00:42.238789,4.38,2.36,3.96,-0.7886706557449377,0.7733990247899872,4.686209041604775
2025-03-19 15:00:42.299277,6.5,14.72,-0.33,1.313360262125733,1.1115565673638885,3.246312408709453
2025-03-19 15:00:42.359794,2.38,11.42,-6.74,0.4657847441259867,0.33488505022641196,0.6130468997630083
2025-03-19 15:00:42.418456,-1.21,7.140000000000001,-2.56,0.5061454830783556,-0.21925698728178766,-0.8366672101747817
2025-03-19 15:00:42.477169,-0.77,-18.04,-2.49,1.1093749057988957,-0.3981532356112064,-0.26070855701665296
2025-03-19 15:00:42.537883,5.25,-0.38,0.75,1.1224648751888533,-0.44724062082354693,-1.1082840750163994
2025-03-19 15:00:42.598961,10.200000000000001,-8.35,2.36,0.830122225479803,-0.03381575425739013,-0.9817477042468103
2025-03-19 15:00:42.660041,-2.94,2.33,0.0,-0.050178215994836975,-0.05345070834232634,-0.7897614865274342
2025-03-19 15:00:42.718877,1.83,-0.2,0.5700000000000001,0.1930770485018727,-0.05345070834232634,-0.5825036378531074
2025-03-19 15:00:42.777506,1.36,0.41000000000000003,0.52,0.08835729338221293,-0.49632800603588745,-1.4529866022852793
2025-03-19 15:00:42.837558,13.36,-3.8000000000000003,2.7600000000000002,-0.27707101875409984,-0.9795660426818175,-2.580905631386615
2025-03-19 15:00:42.898150,5.71,-14.26,7.75,-1.3842642629880026,-1.9493146083211668,-4.248785897823696
2025-03-19 15:00:42.958704,-13.06,-7.4,0.31,-0.9032078879070655,-1.4169891864628963,-1.8631389765039468
2025-03-19 15:00:43.017842,-11.03,-10.040000000000001,3.39,-0.6479534848028948,0.6435901616729091,1.5129822953225844
2025-03-19 15:00:43.076773,-6.9,-11.450000000000001,0.56,-0.2977968036215325,1.4366241405478326,3.8528143237774826
2025-03-19 15:00:43.137010,2.99,4.49,2.16,-0.7733990247899872,0.9817477042468103,4.64475747186991
2025-03-19 15:00:43.198707,8.370000000000001,15.83,-3.45,1.0810133054539879,0.8093964406123704,3.462296903643751
2025-03-19 15:00:43.258970,4.96,13.09,-7.3100000000000005,0.23671027980173096,0.28688849579656794,0.9261153343394911
2025-03-19 15:00:43.318440,-19.56,23.55,-3.92,-1.1857330605736476,-0.8650288105196896,-1.1704614296186973
2025-03-19 15:00:43.377167,5.25,-5.96,3.2600000000000002,1.7442384212118331,-0.04363323129985824,-1.2315479534384988
2025-03-19 15:00:43.436085,0.56,5.19,3.66,0.9195703496445123,-0.2083486794568231,-0.9752027195518317
2025-03-19 15:00:43.496758,-1.85,4.1,0.92,0.4188790204786391,-0.11671889372712078,-1.1813697374436618
2025-03-19 15:00:43.558085,0.63,1.29,0.92,0.14180800172453928,0.07308566242726255,-0.5868669609830933
2025-03-19 15:00:43.619470,0.56,-0.93,0.0,0.03381575425739013,-0.2650718801466388,-1.0177451200691934
2025-03-19 15:00:43.678270,4.62,1.16,1.11,0.09053895494720585,-0.39269908169872414,-1.4486232791552935
2025-03-19 15:00:43.737153,5.25,-2.98,-1.1500000000000001,-0.6272276999354622,-1.1301006906663285,-2.6572637861613666
2025-03-19 15:00:43.797822,12.14,-16.23,9.83,-1.5369805725375065,-1.968949562406103,-4.318599067903469
2025-03-19 15:00:43.857489,-10.84,-12.38,1.71,-0.631591023065448,-1.3788101090755203,-1.7736908523392374
2025-03-19 15:00:43.918183,-10.82,-13.44,3.97,-0.6719517620178169,0.7635815477475192,2.10530341021816
2025-03-19 15:00:43.977627,-6.76,-7.28,3.21,-0.15162547876700738,1.5827954654023577,4.232423436086249
2025-03-19 15:00:44.037792,1.04,3.0300000000000002,-0.38,0.9490227807719167,1.9351338081487128,4.265148359561143
2025-03-19 15:00:44.098214,11.75,20.47,-2.45,1.2293662918735058,1.0701049976290233,2.943061451175438
2025-03-19 15:00:44.158859,1.79,12.280000000000001,-12.05,-1.4464416175903005,-0.755945732270044,0.27598018797160334
2025-03-19 15:00:44.219862,5.34,-14.13,1.69,1.1780972450961724,-0.27379852640661045,-0.9621127501618741
2025-03-19 15:00:44.278696,3.87,4.48,5.42,0.7963064712224128,-0.44505895925855404,-1.8696839611989255
