Time,AccX,AccY,AccZ,GyroX,GyroY,GyroZ
2025-03-19 14:50:19.722264,0.0,0.0,0.0,-0.007635815477475192,0.00545415391248228,-0.001090830782496456
2025-03-19 14:50:19.780415,8.67,-2.15,-14.08,-0.07635815477475191,0.001090830782496456,-0.018544123302439753
2025-03-19 14:50:19.834784,0.0,0.08,-0.05,-0.061086523819801536,-0.014180800172453928,-0.03381575425739013
2025-03-19 14:50:19.891404,0.01,-0.23,-0.24,-0.18216874067690814,-0.06326818538479445,-0.03381575425739013
2025-03-19 14:50:19.947048,-0.05,0.19,0.15,-0.17453292519943295,-0.10799224746714914,-0.008726646259971648
2025-03-19 14:50:20.002773,0.08,0.0,0.12,-0.1559888018969932,-0.13308135546456762,-0.01090830782496456
2025-03-19 14:50:20.057202,-0.18,0.18,-0.12,-0.08726646259971647,-0.11017390903214205,-0.026179938779914945
2025-03-19 14:50:20.112163,-0.23,-0.18,-0.28,-0.06654067773228381,-0.09599310885968812,-0.02945243112740431
2025-03-19 14:50:20.166524,-0.13,0.06,-0.1,-0.09490227807719166,-0.08508480103472356,-0.008726646259971648
2025-03-19 14:50:20.219767,,,,0.02181661564992912,-0.031634092692397225,-0.001090830782496456
2025-03-19 14:50:20.274710,0.17,-0.72,-0.29,-0.17780541754692233,-0.09053895494720585,0.03490658503988659
2025-03-19 14:50:20.330901,0.2,0.15,0.25,-0.25634523388666713,-0.16144295580947549,0.044724062082354694
2025-03-19 14:50:20.386001,0.11,0.12,0.25,-0.18653206380689397,-0.15926129424448257,0.022907446432425576
2025-03-19 14:50:20.442917,-0.16,0.11,-0.13,-0.11453723216212788,-0.12871803233458182,0.01090830782496456
2025-03-19 14:50:20.497464,-0.31,-0.22,-0.46,-0.09490227807719166,-0.09053895494720585,0.014180800172453928
2025-03-19 14:50:20.554570,-0.18,0.04,-0.14,-0.13962634015954636,-0.07417649320975901,0.022907446432425576
2025-03-19 14:50:20.608873,0.07,0.0,0.05,-0.06326818538479445,-0.05890486225480862,0.008726646259971648
2025-03-19 14:50:20.663325,-0.04,-0.14,-0.17,-0.06981317007977318,-0.04690572364734761,0.001090830782496456
2025-03-19 14:50:20.717867,-0.05,0.04,-0.06,-0.08072147790473774,-0.03490658503988659,0.002181661564992912
2025-03-19 14:50:20.772247,-0.02,-0.03,-0.02,-0.0545415391248228,-0.02399827721492203,0.002181661564992912
2025-03-19 14:50:20.826794,-0.07,0.0,-0.08,-0.05345070834232634,-0.015271630954950384,0.011999138607461015
2025-03-19 14:50:20.880969,0.05,0.0,0.08,-0.04908738521234052,-0.009817477042468103,0.016362461737446838
2025-03-19 14:50:20.937591,0.02,0.01,0.08,-0.018544123302439753,-0.007635815477475192,0.006544984694978736
2025-03-19 14:50:20.992453,-0.07,-0.12,-0.14,-0.02945243112740431,-0.019634954084936207,0.008726646259971648
2025-03-19 14:50:21.048722,-0.03,0.05,0.03,-0.013089969389957472,0.002181661564992912,0.006544984694978736
2025-03-19 14:50:21.104069,-0.03,-0.08,-0.05,0.008726646259971648,0.009817477042468103,-0.001090830782496456
2025-03-19 14:50:21.159896,-0.08,-0.03,-0.06,0.015271630954950384,0.003272492347489368,-0.001090830782496456
2025-03-19 14:50:21.214056,0.02,-0.06,0.03,0.013089969389957472,-0.002181661564992912,-0.001090830782496456
2025-03-19 14:50:21.269534,-0.02,0.01,0.05,0.016362461737446838,-0.001090830782496456,0.003272492347489368
2025-03-19 14:50:21.324022,0.0,-0.15,-0.11,-0.002181661564992912,-0.011999138607461015,0.022907446432425576
2025-03-19 14:50:21.378267,0.05,-0.06,0.1,-0.061086523819801536,-0.02945243112740431,0.03381575425739013
2025-03-19 14:50:21.432543,-0.05,-0.01,-0.02,0.01090830782496456,-0.02399827721492203,0.0
2025-03-19 14:50:21.488723,-0.2,-0.02,-0.15,0.03381575425739013,0.009817477042468103,-0.009817477042468103
2025-03-19 14:50:21.543387,-0.04,-0.11,-0.09,0.004363323129985824,0.030543261909900768,0.016362461737446838
2025-03-19 14:50:21.600082,0.14,-0.05,0.04,-0.030543261909900768,0.03381575425739013,0.026179938779914945
2025-03-19 14:50:21.654553,0.06,-0.46,-0.24,-0.22143864884678055,0.019634954084936207,0.03490658503988659
2025-03-19 14:50:21.711909,-0.06,0.29,0.33,-0.23889194136672387,-0.017453292519943295,0.031634092692397225
2025-03-19 14:50:21.766132,0.05,0.16,0.23,-0.022907446432425576,0.004363323129985824,-0.006544984694978736
2025-03-19 14:50:21.820685,-0.04,-0.1,-0.07,0.019634954084936207,0.030543261909900768,-0.022907446432425576
2025-03-19 14:50:21.875619,-0.01,0.04,0.05,0.011999138607461015,0.015271630954950384,-0.013089969389957472
2025-03-19 14:50:21.929799,0.08,0.0,0.13,0.03490658503988659,0.011999138607461015,-0.003272492347489368
2025-03-19 14:50:21.985337,0.04,0.0,0.03,0.025089107997418487,0.016362461737446838,0.003272492347489368
2025-03-19 14:50:22.041912,-0.02,-0.13,-0.12,0.002181661564992912,0.016362461737446838,-0.001090830782496456
2025-03-19 14:50:22.096611,-0.04,-0.05,-0.04,-0.039269908169872414,0.013089969389957472,0.002181661564992912
2025-03-19 14:50:22.152860,0.08,0.0,0.08,-0.02399827721492203,0.014180800172453928,0.009817477042468103
2025-03-19 14:50:22.207360,-0.01,-0.02,0.01,0.01090830782496456,0.015271630954950384,-0.004363323129985824
2025-03-19 14:50:22.263787,0.04,-0.06,0.03,0.04363323129985824,0.003272492347489368,-0.019634954084936207
2025-03-19 14:50:22.318675,0.01,-0.08,0.01,0.02945243112740431,-0.01090830782496456,-0.02181661564992912
2025-03-19 14:50:22.373026,0.0,0.02,0.05,-0.02181661564992912,-0.018544123302439753,0.006544984694978736
2025-03-19 14:50:22.428357,0.0,0.05,0.12,0.006544984694978736,-0.009817477042468103,0.018544123302439753
2025-03-19 14:50:22.482700,-0.02,-0.03,0.0,0.025089107997418487,0.002181661564992912,0.016362461737446838
2025-03-19 14:50:22.537574,0.0,-0.08,-0.01,0.044724062082354694,0.014180800172453928,-0.001090830782496456
2025-03-19 14:50:22.592616,-0.01,-0.05,0.03,0.018544123302439753,0.014180800172453928,-0.001090830782496456
2025-03-19 14:50:22.648447,0.0,-0.02,0.03,0.02181661564992912,0.015271630954950384,-0.008726646259971648
2025-03-19 14:50:22.709077,0.04,-0.08,0.0,0.001090830782496456,0.00545415391248228,-0.004363323129985824
2025-03-19 14:50:22.763939,0.05,0.02,0.06,-0.004363323129985824,-0.003272492347489368,-0.00545415391248228
2025-03-19 14:50:22.819692,0.0,0.03,0.05,0.018544123302439753,0.004363323129985824,-0.002181661564992912
2025-03-19 14:50:22.873575,0.0,-0.17,0.02,0.026179938779914945,0.001090830782496456,-0.025089107997418487
2025-03-19 14:50:22.927358,-0.07,0.0,-0.01,0.020725784867432664,0.008726646259971648,-0.04690572364734761
2025-03-19 14:50:22.981607,0.18,0.05,0.21,-0.006544984694978736,0.011999138607461015,-0.00545415391248228
2025-03-19 14:50:23.035563,0.08,0.09,0.18,-0.03381575425739013,-0.013089969389957472,0.030543261909900768
2025-03-19 14:50:23.089601,-0.02,-0.07,-0.03,-0.015271630954950384,-0.014180800172453928,0.044724062082354694
2025-03-19 14:50:23.143462,-0.12,-0.07,-0.09,-0.019634954084936207,0.003272492347489368,0.015271630954950384
2025-03-19 14:50:23.200119,0.07,-0.08,0.0,0.015271630954950384,0.017453292519943295,-0.009817477042468103
2025-03-19 14:50:23.253871,0.0,0.02,0.04,0.017453292519943295,0.015271630954950384,-0.022907446432425576
2025-03-19 14:50:23.310199,0.05,-0.07,-0.01,-0.008726646259971648,-0.007635815477475192,-0.008726646259971648
2025-03-19 14:50:23.371557,0.07,0.07,0.12,-0.015271630954950384,-0.0272707695624114,0.002181661564992912
2025-03-19 14:50:23.430025,0.0,-0.08,0.0,-0.00545415391248228,-0.008726646259971648,-0.004363323129985824
2025-03-19 14:50:23.484577,-0.04,-0.02,-0.03,0.015271630954950384,0.009817477042468103,-0.004363323129985824
2025-03-19 14:50:23.538568,-0.01,0.04,0.02,0.020725784867432664,0.0272707695624114,0.002181661564992912
2025-03-19 14:50:23.596266,0.03,-0.08,0.04,0.011999138607461015,0.02181661564992912,0.020725784867432664
2025-03-19 14:50:23.651756,0.1,-0.05,0.1,-0.013089969389957472,-0.009817477042468103,0.02399827721492203
2025-03-19 14:50:23.707161,0.04,-0.08,0.02,-0.002181661564992912,-0.02399827721492203,-0.002181661564992912
2025-03-19 14:50:23.765223,0.0,0.0,-0.03,-0.002181661564992912,-0.017453292519943295,-0.007635815477475192
2025-03-19 14:50:23.821296,0.0,0.11,0.1,-0.009817477042468103,-0.008726646259971648,0.008726646259971648
2025-03-19 14:50:23.876673,0.0,0.0,0.04,0.03381575425739013,0.014180800172453928,0.008726646259971648
2025-03-19 14:50:23.930829,0.03,-0.09,-0.02,0.03599741582238305,0.019634954084936207,-0.1407171709420428
2025-03-19 14:50:23.986784,0.03,-0.01,0.06,-0.007635815477475192,0.011999138607461015,0.0
2025-03-19 14:50:24.042538,0.03,0.0,0.05,0.017453292519943295,0.002181661564992912,0.002181661564992912
2025-03-19 14:50:24.097887,0.05,-0.05,0.02,0.004363323129985824,-0.001090830782496456,0.0
2025-03-19 14:50:24.154050,0.01,-0.01,0.0,0.002181661564992912,-0.002181661564992912,0.004363323129985824
2025-03-19 14:50:24.208803,0.04,0.05,0.12,0.00545415391248228,-0.002181661564992912,0.00545415391248228
2025-03-19 14:50:24.265199,0.07,-0.1,0.0,0.004363323129985824,-0.009817477042468103,0.002181661564992912
2025-03-19 14:50:24.319939,0.04,-0.03,0.04,-0.015271630954950384,-0.020725784867432664,-0.004363323129985824
2025-03-19 14:50:24.377279,0.01,0.07,0.1,-0.014180800172453928,-0.015271630954950384,0.0
2025-03-19 14:50:24.431466,0.01,0.0,0.01,-0.019634954084936207,-0.017453292519943295,0.011999138607461015
2025-03-19 14:50:24.486642,0.04,0.01,0.1,-0.007635815477475192,-0.007635815477475192,0.009817477042468103
2025-03-19 14:50:24.541450,0.0,0.0,0.05,0.019634954084936207,0.004363323129985824,-0.004363323129985824
2025-03-19 14:50:24.595643,0.02,0.0,0.03,0.030543261909900768,0.011999138607461015,-0.006544984694978736
2025-03-19 14:50:24.651167,0.04,-0.05,0.03,0.007635815477475192,0.015271630954950384,-0.00545415391248228
2025-03-19 14:50:24.707371,0.06,0.0,0.1,0.0,0.008726646259971648,-0.00545415391248228
2025-03-19 14:50:24.762087,0.02,0.0,0.07,0.00545415391248228,-0.002181661564992912,-0.001090830782496456
2025-03-19 14:50:24.818652,0.05,-0.02,0.03,0.001090830782496456,0.0,0.00545415391248228
2025-03-19 14:50:24.873285,0.02,0.06,0.12,0.019634954084936207,0.009817477042468103,0.006544984694978736
2025-03-19 14:50:24.930633,0.06,-0.05,0.05,0.02181661564992912,0.006544984694978736,0.007635815477475192
2025-03-19 14:50:24.984821,0.1,-0.1,0.08,0.009817477042468103,0.0,-0.002181661564992912
2025-03-19 14:50:25.040364,0.0,0.09,0.08,0.001090830782496456,-0.00545415391248228,-0.003272492347489368
2025-03-19 14:50:25.095223,0.02,-0.22,-0.05,-0.03599741582238305,-0.018544123302439753,0.002181661564992912
2025-03-19 14:50:25.149553,-0.1,0.24,0.14,-0.02399827721492203,0.004363323129985824,0.008726646259971648
2025-03-19 14:50:25.204004,0.24,0.0,0.26,0.04908738521234052,0.02945243112740431,0.014180800172453928
2025-03-19 14:50:25.259868,0.0,-0.27,0.0,0.00545415391248228,-0.016362461737446838,-0.017453292519943295
2025-03-19 14:50:25.315181,-0.08,0.04,0.01,-0.017453292519943295,-0.022907446432425576,-0.037088246604879506
2025-03-19 14:50:25.371528,0.13,-0.08,0.07,0.003272492347489368,-0.002181661564992912,-0.038179077387375956
2025-03-19 14:50:25.426500,0.04,0.15,0.21,-0.04036073895236887,-0.0272707695624114,0.009817477042468103
2025-03-19 14:50:25.482846,0.05,-0.1,0.03,-0.03381575425739013,-0.03381575425739013,0.031634092692397225
2025-03-19 14:50:25.540170,-0.05,0.04,0.08,-0.04145156973486533,-0.025089107997418487,0.02399827721492203
2025-03-19 14:50:25.595053,-0.03,-0.01,0.03,0.030543261909900768,-0.006544984694978736,0.01090830782496456
2025-03-19 14:50:25.649299,-0.09,0.08,0.1,0.06763150851478027,0.0,0.002181661564992912
2025-03-19 14:50:25.704741,0.19,-0.21,-0.18,0.10253809355466686,-0.003272492347489368,0.006544984694978736
2025-03-19 14:50:25.759126,-0.01,-0.08,0.09,-0.13526301702956053,-0.044724062082354694,0.030543261909900768
2025-03-19 14:50:25.816350,0.16,0.09,0.28,-0.12762720155208535,-0.08290313946973066,0.032724923474893676
2025-03-19 14:50:25.870494,0.13,-0.01,0.14,-0.09053895494720585,-0.07308566242726255,0.016362461737446838
2025-03-19 14:50:25.927165,-0.02,-0.14,-0.08,-0.11999138607461016,-0.061086523819801536,0.013089969389957472
2025-03-19 14:50:25.981655,-0.04,-0.02,0.03,-0.15926129424448257,-0.10035643198967395,0.020725784867432664
2025-03-19 14:50:26.038282,0.21,0.05,0.29,-0.17235126363444003,-0.09490227807719166,0.007635815477475192
2025-03-19 14:50:26.092456,0.09,-0.14,0.01,-0.14180800172453928,-0.10362892433716332,0.004363323129985824
2025-03-19 14:50:26.146755,-0.06,-0.01,-0.06,-0.15926129424448257,-0.1265363707695889,0.01090830782496456
2025-03-19 14:50:26.201165,0.09,0.08,0.2,-0.13853550937704992,-0.10690141668465268,0.007635815477475192
2025-03-19 14:50:26.255426,0.09,0.1,0.2,-0.06763150851478027,-0.07308566242726255,0.00545415391248228
2025-03-19 14:50:26.309855,-0.01,-0.2,-0.08,-0.09926560120717749,-0.08072147790473774,0.025089107997418487
2025-03-19 14:50:26.364141,0.11,0.11,0.23,-0.11780972450961724,-0.07417649320975901,0.03599741582238305
2025-03-19 14:50:26.420431,0.01,0.0,0.06,-0.038179077387375956,-0.03381575425739013,0.017453292519943295
2025-03-19 14:50:26.474616,-0.04,0.2,0.2,0.044724062082354694,-0.011999138607461015,-0.006544984694978736
2025-03-19 14:50:26.531036,0.02,-0.05,0.01,0.1538071403320003,0.026179938779914945,-0.020725784867432664
2025-03-19 14:50:26.586403,-0.06,-0.33,-0.23,0.055632369907319255,0.037088246604879506,-0.00545415391248228
2025-03-19 14:50:26.642504,-0.05,0.01,0.0,0.017453292519943295,0.032724923474893676,0.014180800172453928
2025-03-19 14:50:26.696711,0.17,-0.13,0.12,-0.018544123302439753,0.017453292519943295,0.020725784867432664
2025-03-19 14:50:26.751174,0.09,-0.02,0.2,-0.04254240051736178,0.019634954084936207,0.011999138607461015
2025-03-19 14:50:26.805423,-0.07,-0.07,0.0,0.02945243112740431,0.002181661564992912,0.003272492347489368
2025-03-19 14:50:26.862351,0.07,-0.11,0.08,-0.019634954084936207,0.007635815477475192,0.004363323129985824
2025-03-19 14:50:26.916618,0.18,0.0,0.2,-0.016362461737446838,-0.014180800172453928,-0.004363323129985824
2025-03-19 14:50:26.972976,0.02,-0.13,0.02,-0.020725784867432664,-0.038179077387375956,-0.013089969389957472
2025-03-19 14:50:27.027148,0.0,-0.11,-0.11,-0.019634954084936207,-0.04145156973486533,-0.016362461737446838
2025-03-19 14:50:27.083944,-0.04,0.16,0.0,0.008726646259971648,0.004363323129985824,-0.011999138607461015
2025-03-19 14:50:27.138119,-0.03,0.0,0.03,-0.020725784867432664,0.030543261909900768,0.003272492347489368
2025-03-19 14:50:27.195072,0.21,-0.2,0.12,-0.05999569303730508,0.0272707695624114,0.02399827721492203
2025-03-19 14:50:27.249256,0.16,-0.09,0.11,-0.06217735460229799,0.004363323129985824,0.013089969389957472
2025-03-19 14:50:27.303444,-0.1,0.04,-0.01,-0.03490658503988659,0.0,-0.00545415391248228
2025-03-19 14:50:27.358187,0.13,0.04,0.15,0.007635815477475192,0.02181661564992912,-0.018544123302439753
2025-03-19 14:50:27.412462,0.05,-0.04,0.05,0.032724923474893676,-0.001090830782496456,-0.0272707695624114
2025-03-19 14:50:27.466684,0.02,-0.07,0.01,0.044724062082354694,-0.025089107997418487,-0.018544123302439753
2025-03-19 14:50:27.520918,0.07,0.07,0.1,-0.03381575425739013,-0.037088246604879506,0.009817477042468103
2025-03-19 14:50:27.577291,0.06,0.03,0.13,0.030543261909900768,-0.028361600344907856,0.011999138607461015
2025-03-19 14:50:27.631442,-0.01,-0.04,-0.01,0.06544984694978735,-0.003272492347489368,0.013089969389957472
2025-03-19 14:50:27.687857,-0.08,0.14,-0.01,0.09926560120717749,0.022907446432425576,0.016362461737446838
2025-03-19 14:50:27.743037,-0.04,-0.21,-0.21,0.11017390903214205,0.050178215994836975,0.017453292519943295
2025-03-19 14:50:27.799227,-0.14,-0.1,-0.16,0.05126904677733343,0.04036073895236887,0.02945243112740431
2025-03-19 14:50:27.853414,0.06,0.19,0.12,0.032724923474893676,0.05890486225480862,0.04690572364734761
2025-03-19 14:50:27.908098,0.18,-0.11,0.15,0.07526732399225546,0.09599310885968812,0.02945243112740431
2025-03-19 14:50:27.962296,0.01,0.01,0.12,0.08726646259971647,0.10690141668465268,0.02945243112740431
2025-03-19 14:50:28.016521,0.09,-0.04,0.09,0.12217304763960307,0.11780972450961724,0.0272707695624114
2025-03-19 14:50:28.070866,0.06,-0.1,0.0,0.1090830782496456,0.12762720155208535,0.025089107997418487
2025-03-19 14:50:28.125080,-0.04,0.08,0.11,0.1341721862470641,0.10362892433716332,0.0272707695624114
2025-03-19 14:50:28.180961,0.05,0.05,0.0,0.19634954084936207,0.09708393964218458,0.016362461737446838
2025-03-19 14:50:28.235294,-0.01,-0.04,0.0,0.21925698728178766,0.09817477042468103,0.01090830782496456
2025-03-19 14:50:28.291569,-0.15,-0.01,-0.14,0.2007128639793479,0.10471975511965978,-0.007635815477475192
2025-03-19 14:50:28.345725,0.02,-0.27,-0.26,0.07744898555724837,0.11562806294462433,-0.02181661564992912
2025-03-19 14:50:28.402309,-0.15,0.05,-0.04,0.08726646259971647,0.16471544815696484,-0.07963064712224129
2025-03-19 14:50:28.460700,-0.08,0.26,0.03,0.24652775684419906,0.23889194136672387,-0.14726215563702155
2025-03-19 14:50:28.519178,-0.04,-0.15,-0.18,0.34033920413889424,0.3119776037939864,-0.22580197197676638
2025-03-19 14:50:28.577728,-0.23,-0.09,-0.16,0.2748893571891069,0.31306843457648287,-0.2399827721492203
2025-03-19 14:50:28.637938,-0.13,0.17,0.01,0.18435040224190105,0.2912518189265537,-0.22362031041177347
2025-03-19 14:50:28.697761,0.0,0.21,0.13,0.14726215563702155,0.26070855701665296,-0.18544123302439752
2025-03-19 14:50:28.758756,0.14,0.08,0.2,0.15162547876700738,0.19525871006686563,-0.14289883250703572
2025-03-19 14:50:28.818162,0.1,0.13,0.31,0.10035643198967395,0.16035212502697901,-0.10799224746714914
2025-03-19 14:50:28.877817,0.09,0.1,0.2,0.13308135546456762,0.13526301702956053,-0.09817477042468103
2025-03-19 14:50:28.938934,-0.04,-0.06,-0.13,0.06435901616729091,0.06435901616729091,-0.05781403147231216
2025-03-19 14:50:28.997751,0.0,0.02,0.0,-0.044724062082354694,-0.009817477042468103,-0.026179938779914945
2025-03-19 14:50:29.057373,0.08,0.08,0.17,-0.0719948316447661,-0.039269908169872414,-0.008726646259971648
2025-03-19 14:50:29.116927,0.05,0.14,0.16,-0.032724923474893676,-0.044724062082354694,-0.009817477042468103
2025-03-19 14:50:29.175844,-0.01,0.15,0.12,-0.018544123302439753,-0.05235987755982989,0.003272492347489368
2025-03-19 14:50:29.236588,-0.06,0.06,0.0,-0.003272492347489368,-0.044724062082354694,0.02399827721492203
2025-03-19 14:50:29.296781,0.0,0.01,-0.04,-0.032724923474893676,-0.07526732399225546,0.04581489286485115
2025-03-19 14:50:29.357327,0.03,0.07,0.03,-0.06872233929727672,-0.11017390903214205,0.06217735460229799
2025-03-19 14:50:29.415859,0.01,0.09,0.1,-0.05890486225480862,-0.14289883250703572,0.07090400086226964
2025-03-19 14:50:29.474629,-0.01,0.11,0.07,-0.031634092692397225,-0.13199052468207118,0.06763150851478027
2025-03-19 14:50:29.533495,-0.06,0.03,-0.03,-0.018544123302439753,-0.09817477042468103,0.06435901616729091
2025-03-19 14:50:29.593958,-0.14,0.0,-0.09,-0.031634092692397225,-0.0916297857297023,0.06217735460229799
2025-03-19 14:50:29.653964,-0.09,-0.02,-0.08,-0.03599741582238305,-0.0916297857297023,0.05235987755982989
2025-03-19 14:50:29.715050,0.0,0.02,0.02,-0.05126904677733343,-0.07744898555724837,0.044724062082354694
2025-03-19 14:50:29.774783,-0.03,0.03,0.0,-0.0272707695624114,-0.06654067773228381,0.02945243112740431
2025-03-19 14:50:29.833553,-0.05,0.12,0.0,-0.008726646259971648,-0.04363323129985824,0.016362461737446838
2025-03-19 14:50:29.893480,-0.08,-0.02,-0.07,0.008726646259971648,-0.016362461737446838,0.009817477042468103
2025-03-19 14:50:29.961827,-0.09,0.07,-0.01,-0.001090830782496456,0.006544984694978736,0.011999138607461015
2025-03-19 14:50:30.020631,-0.06,0.05,0.03,0.016362461737446838,0.02181661564992912,0.014180800172453928
2025-03-19 14:50:30.079237,-0.01,0.04,0.07,0.038179077387375956,0.025089107997418487,0.002181661564992912
2025-03-19 14:50:30.138675,-0.02,-0.02,0.0,0.037088246604879506,0.025089107997418487,-0.011999138607461015
2025-03-19 14:50:30.199254,-0.01,-0.04,-0.02,0.00545415391248228,0.014180800172453928,-0.013089969389957472
2025-03-19 14:50:30.259565,0.04,0.03,0.05,-0.007635815477475192,-0.004363323129985824,-0.01090830782496456
2025-03-19 14:50:30.318932,0.03,0.05,0.1,-0.011999138607461015,-0.020725784867432664,-0.009817477042468103
2025-03-19 14:50:30.377666,-0.02,0.06,0.0,-0.018544123302439753,-0.037088246604879506,0.006544984694978736
2025-03-19 14:50:30.436641,0.02,0.07,0.05,-0.022907446432425576,-0.030543261909900768,0.022907446432425576
2025-03-19 14:50:30.496939,-0.01,0.01,0.0,-0.05781403147231216,-0.02181661564992912,0.028361600344907856
2025-03-19 14:50:30.557554,0.01,0.15,0.12,-0.016362461737446838,-0.002181661564992912,0.018544123302439753
2025-03-19 14:50:30.618073,-0.06,0.01,0.0,0.01090830782496456,0.001090830782496456,0.009817477042468103
2025-03-19 14:50:30.677443,-0.1,0.07,-0.03,0.011999138607461015,0.011999138607461015,0.00545415391248228
2025-03-19 14:50:30.736177,-0.09,0.03,-0.03,0.025089107997418487,0.025089107997418487,0.001090830782496456
2025-03-19 14:50:30.796290,-0.04,-0.03,0.0,0.04145156973486533,0.0545415391248228,-0.017453292519943295
2025-03-19 14:50:30.856697,0.01,0.03,0.06,0.04799655442984406,0.06654067773228381,-0.03381575425739013
2025-03-19 14:50:30.917187,0.01,0.07,0.07,0.05126904677733343,0.06763150851478027,-0.04036073895236887
2025-03-19 14:50:30.976378,0.0,0.02,0.07,0.03381575425739013,0.038179077387375956,-0.020725784867432664
2025-03-19 14:50:31.037302,0.0,0.0,0.04,0.011999138607461015,0.011999138607461015,-0.009817477042468103
2025-03-19 14:50:31.097762,0.05,0.07,0.09,-0.013089969389957472,-0.016362461737446838,0.0
2025-03-19 14:50:31.157960,-0.03,0.03,0.06,-0.013089969389957472,-0.026179938779914945,0.008726646259971648
2025-03-19 14:50:31.218510,-0.07,0.03,0.03,-0.026179938779914945,-0.02945243112740431,0.020725784867432664
2025-03-19 14:50:31.277070,0.06,0.04,0.14,-0.02945243112740431,-0.0272707695624114,0.022907446432425576
2025-03-19 14:50:31.337359,0.0,0.1,0.14,-0.001090830782496456,-0.01090830782496456,0.011999138607461015
2025-03-19 14:50:31.397930,-0.06,0.01,0.01,-0.001090830782496456,-0.00545415391248228,0.013089969389957472
2025-03-19 14:50:31.458254,0.03,0.08,0.11,0.002181661564992912,0.009817477042468103,0.01090830782496456
2025-03-19 14:50:31.518850,-0.09,0.09,0.06,0.009817477042468103,0.019634954084936207,0.004363323129985824
2025-03-19 14:50:31.577699,0.04,-0.04,0.01,0.0,0.004363323129985824,0.003272492347489368
2025-03-19 14:50:31.637924,0.05,0.15,0.22,-0.01090830782496456,-0.013089969389957472,0.003272492347489368
2025-03-19 14:50:31.698045,-0.05,0.04,0.02,0.007635815477475192,-0.020725784867432664,0.008726646259971648
2025-03-19 14:50:31.758742,-0.07,0.06,0.04,0.0,-0.019634954084936207,0.007635815477475192
2025-03-19 14:50:31.818969,-0.05,0.0,0.0,0.026179938779914945,0.002181661564992912,-0.00545415391248228
2025-03-19 14:50:31.878282,-0.08,-0.01,0.01,0.03381575425739013,0.02399827721492203,-0.018544123302439753
2025-03-19 14:50:31.936995,0.0,0.01,0.03,0.026179938779914945,0.044724062082354694,-0.028361600344907856
2025-03-19 14:50:31.995686,-0.03,0.03,0.05,0.030543261909900768,0.061086523819801536,-0.03599741582238305
2025-03-19 14:50:32.056604,0.0,-0.07,0.0,0.007635815477475192,0.05235987755982989,-0.03490658503988659
2025-03-19 14:50:32.116970,0.05,-0.03,0.02,-0.031634092692397225,0.019634954084936207,-0.032724923474893676
2025-03-19 14:50:32.177506,0.08,0.0,0.14,-0.044724062082354694,-0.016362461737446838,-0.020725784867432664
2025-03-19 14:50:32.236094,0.02,0.24,0.31,-0.03381575425739013,-0.02181661564992912,-0.01090830782496456
2025-03-19 14:50:32.296517,0.04,0.08,0.11,0.007635815477475192,-0.02181661564992912,0.006544984694978736
2025-03-19 14:50:32.356938,-0.07,0.03,0.05,0.011999138607461015,-0.009817477042468103,0.019634954084936207
2025-03-19 14:50:32.417235,-0.07,0.06,0.0,0.03599741582238305,0.016362461737446838,0.013089969389957472
2025-03-19 14:50:32.477581,-0.13,0.01,-0.04,0.06326818538479445,0.05235987755982989,-0.01090830782496456
2025-03-19 14:50:32.536355,-0.05,0.0,0.01,0.050178215994836975,0.06435901616729091,-0.019634954084936207
2025-03-19 14:50:32.594945,0.0,0.0,0.06,0.061086523819801536,0.07744898555724837,-0.03599741582238305
2025-03-19 14:50:32.656072,-0.03,0.0,0.01,0.06217735460229799,0.0719948316447661,-0.04254240051736178
2025-03-19 14:50:32.716480,-0.01,0.01,0.07,0.02945243112740431,0.04908738521234052,-0.031634092692397225
2025-03-19 14:50:32.777322,0.02,0.06,0.12,0.022907446432425576,0.022907446432425576,-0.02181661564992912
2025-03-19 14:50:32.836648,-0.01,0.07,0.09,0.02181661564992912,0.009817477042468103,-0.015271630954950384
2025-03-19 14:50:32.895290,-0.03,0.05,0.05,0.022907446432425576,-0.001090830782496456,-0.008726646259971648
2025-03-19 14:50:32.955839,-0.01,0.04,0.08,0.006544984694978736,-0.004363323129985824,-0.001090830782496456
2025-03-19 14:50:33.015881,0.0,0.04,0.07,-0.001090830782496456,-0.007635815477475192,0.001090830782496456
2025-03-19 14:50:33.076207,0.0,0.06,0.08,-0.001090830782496456,-0.002181661564992912,0.002181661564992912
2025-03-19 14:50:33.135699,-0.02,0.03,0.04,-0.002181661564992912,-0.003272492347489368,0.006544984694978736
2025-03-19 14:50:33.196157,-0.01,0.03,0.07,-0.002181661564992912,-0.013089969389957472,0.004363323129985824
2025-03-19 14:50:33.256302,1.28,0.0,0.07,-0.002181661564992912,-0.020725784867432664,0.01090830782496456
2025-03-19 14:50:33.316793,-0.03,0.0,0.06,-0.018544123302439753,-0.0272707695624114,0.020725784867432664
2025-03-19 14:50:33.377686,-0.06,0.02,0.0,-0.00545415391248228,-0.015271630954950384,0.011999138607461015
2025-03-19 14:50:33.437245,-0.07,0.04,0.04,-0.002181661564992912,0.003272492347489368,-0.00545415391248228
2025-03-19 14:50:33.497749,0.0,0.07,0.12,0.01090830782496456,0.01090830782496456,-0.017453292519943295
2025-03-19 14:50:33.558692,0.01,0.04,0.08,0.013089969389957472,0.002181661564992912,-0.009817477042468103
2025-03-19 14:50:33.618954,-0.01,0.07,0.07,-0.001090830782496456,-0.004363323129985824,0.00545415391248228
2025-03-19 14:50:33.679252,-0.01,0.03,0.06,0.0,-0.008726646259971648,0.01090830782496456
2025-03-19 14:50:33.738896,-0.03,0.03,0.05,-0.004363323129985824,-0.013089969389957472,0.007635815477475192
2025-03-19 14:50:33.798791,-0.02,0.03,0.1,-0.00545415391248228,-0.01090830782496456,0.002181661564992912
2025-03-19 14:50:33.859423,-0.02,0.02,0.07,-0.001090830782496456,-0.002181661564992912,-0.002181661564992912
2025-03-19 14:50:33.919780,-0.05,0.02,0.03,0.003272492347489368,0.004363323129985824,-0.003272492347489368
2025-03-19 14:50:33.979956,-0.01,0.05,0.09,0.001090830782496456,0.008726646259971648,-0.002181661564992912
2025-03-19 14:50:34.039959,-0.02,0.04,0.08,-0.002181661564992912,-0.00545415391248228,0.006544984694978736
2025-03-19 14:50:34.099691,-0.01,0.0,0.02,-0.002181661564992912,-0.008726646259971648,0.008726646259971648
2025-03-19 14:50:34.160943,0.0,0.05,0.1,-0.009817477042468103,-0.006544984694978736,0.004363323129985824
2025-03-19 14:50:34.222317,-0.03,-0.01,0.03,0.0,-0.01090830782496456,0.002181661564992912
2025-03-19 14:50:34.283581,0.0,0.04,0.07,-0.009817477042468103,-0.008726646259971648,0.002181661564992912
2025-03-19 14:50:34.342898,-0.04,0.06,0.06,-0.002181661564992912,-0.003272492347489368,0.001090830782496456
2025-03-19 14:50:34.403559,0.0,0.02,0.06,-0.003272492347489368,0.0,0.001090830782496456
2025-03-19 14:50:34.463902,-0.02,0.05,0.08,0.003272492347489368,-0.001090830782496456,-0.001090830782496456
2025-03-19 14:50:34.524376,0.0,0.01,0.08,-0.001090830782496456,-0.003272492347489368,0.001090830782496456
2025-03-19 14:50:34.584740,-0.01,0.04,0.08,0.001090830782496456,-0.00545415391248228,0.001090830782496456
2025-03-19 14:50:34.645411,0.0,0.05,0.1,-0.006544984694978736,-0.004363323129985824,0.00545415391248228
2025-03-19 14:50:34.706735,-0.01,0.0,0.06,-0.006544984694978736,-0.006544984694978736,0.007635815477475192
2025-03-19 14:50:34.767482,-0.05,0.0,0.06,-0.01090830782496456,-0.007635815477475192,0.006544984694978736
2025-03-19 14:50:34.827773,-0.03,0.05,0.09,-0.01090830782496456,-0.007635815477475192,0.007635815477475192
2025-03-19 14:50:34.888085,-0.01,-0.01,0.04,0.004363323129985824,0.003272492347489368,-0.001090830782496456
2025-03-19 14:50:34.947845,-0.01,0.0,0.03,0.007635815477475192,0.00545415391248228,-0.002181661564992912
2025-03-19 14:50:35.009499,-0.01,0.02,0.1,0.009817477042468103,0.01090830782496456,-0.006544984694978736
2025-03-19 14:50:35.069841,-0.02,-0.02,0.08,0.006544984694978736,0.001090830782496456,0.001090830782496456
2025-03-19 14:50:35.130253,0.01,0.03,0.09,-0.008726646259971648,-0.01090830782496456,0.006544984694978736
2025-03-19 14:50:35.190288,-0.04,0.01,0.06,-0.007635815477475192,-0.009817477042468103,0.007635815477475192
2025-03-19 14:50:35.249311,0.0,0.02,0.08,-0.006544984694978736,-0.01090830782496456,0.003272492347489368
2025-03-19 14:50:35.309553,-0.05,0.04,0.08,-0.001090830782496456,-0.001090830782496456,-0.002181661564992912
2025-03-19 14:50:35.370623,-0.04,0.03,0.04,0.003272492347489368,0.001090830782496456,-0.002181661564992912
2025-03-19 14:50:35.432140,-0.04,0.02,0.05,-0.003272492347489368,0.001090830782496456,0.003272492347489368
2025-03-19 14:50:35.492445,0.0,0.0,0.09,-0.004363323129985824,-0.004363323129985824,0.007635815477475192
2025-03-19 14:50:35.551467,0.0,0.0,0.05,-0.003272492347489368,-0.00545415391248228,0.003272492347489368
2025-03-19 14:50:35.612199,0.0,0.0,0.08,-0.008726646259971648,-0.00545415391248228,0.001090830782496456
2025-03-19 14:50:35.672173,-0.06,-0.24,-0.23,-0.025089107997418487,-0.0272707695624114,0.014180800172453928
2025-03-19 14:50:35.732634,0.17,-0.75,-0.41000000000000003,-0.24216443371421323,-0.11126473981463851,0.07526732399225546
2025-03-19 14:50:35.794052,0.85,-0.91,-0.52,-0.6948592084502424,-0.23671027980173096,0.18544123302439752
2025-03-19 14:50:35.853931,-0.21,0.07,0.23,-1.1715522604011936,-0.4276056667386107,0.2083486794568231
2025-03-19 14:50:35.912476,-0.18,1.1300000000000001,1.25,-0.8268497331323136,-0.4821472058634335,0.16689710972195776
2025-03-19 14:50:35.971860,0.03,0.54,0.89,-0.3076142806640006,-0.29670597283903605,0.04799655442984406
2025-03-19 14:50:36.032416,0.12,-0.2,-0.16,-0.14726215563702155,-0.2378011105842274,0.06654067773228381
2025-03-19 14:50:36.092865,-0.05,0.05,-0.8200000000000001,0.013089969389957472,-0.34143003492139073,0.11126473981463851
2025-03-19 14:50:36.152667,0.03,-0.39,-0.76,0.210530341021816,-0.47451139038595835,0.16471544815696484
2025-03-19 14:50:36.211284,-0.05,-0.31,0.68,0.2454369260617026,-0.40033489717619936,0.14508049407202864
2025-03-19 14:50:36.270657,-0.17,-0.45,0.64,0.272707695624114,-0.272707695624114,0.1090830782496456
2025-03-19 14:50:36.331326,-0.48,0.6,0.4,0.19416787928436915,-0.11344640137963143,0.06872233929727672
2025-03-19 14:50:36.391762,-0.18,-0.19,0.16,0.1636246173744684,-0.044724062082354694,0.08944812416470939
2025-03-19 14:50:36.453094,-0.21,0.21,0.52,0.025089107997418487,-0.02945243112740431,0.07090400086226964
2025-03-19 14:50:36.512636,0.03,0.87,0.96,-0.015271630954950384,0.04036073895236887,-0.08726646259971647
2025-03-19 14:50:36.571522,0.02,1.59,0.6,0.18871372537188688,0.17562375598192942,-0.21489366415180183
2025-03-19 14:50:36.632217,0.77,-1.36,-0.8200000000000001,0.3785182815262702,0.0719948316447661,-0.09053895494720585
2025-03-19 14:50:36.692684,0.45,-0.51,0.06,-0.025089107997418487,0.02945243112740431,0.003272492347489368
2025-03-19 14:50:36.753661,-0.12,0.45,0.24,0.032724923474893676,0.02945243112740431,-0.022907446432425576
2025-03-19 14:50:36.813224,0.05,0.13,0.13,0.20943951023931956,0.03599741582238305,-0.018544123302439753
2025-03-19 14:50:36.871940,0.27,-0.35000000000000003,-0.13,0.16144295580947549,0.050178215994836975,-0.007635815477475192
2025-03-19 14:50:36.932260,0.0,0.01,0.07,0.05235987755982989,0.06654067773228381,0.00545415391248228
2025-03-19 14:50:36.992616,0.09,0.01,0.01,0.12544553998709243,0.06981317007977318,-0.007635815477475192
2025-03-19 14:50:37.052928,0.08,-0.26,-0.05,0.09817477042468103,0.055632369907319255,-0.013089969389957472
2025-03-19 14:50:37.111391,0.15,-0.01,0.14,0.014180800172453928,0.03381575425739013,-0.01090830782496456
2025-03-19 14:50:37.169939,0.1,0.04,0.1,0.04254240051736178,0.02945243112740431,-0.008726646259971648
2025-03-19 14:50:37.228651,0.13,-0.06,0.04,0.02945243112740431,0.017453292519943295,-0.004363323129985824
2025-03-19 14:50:37.288893,0.03,-0.01,0.09,-0.009817477042468103,0.014180800172453928,0.003272492347489368
2025-03-19 14:50:37.348696,0.11,0.01,0.1,0.022907446432425576,0.008726646259971648,-0.003272492347489368
2025-03-19 14:50:37.409866,0.13,-0.04,0.05,0.0272707695624114,0.011999138607461015,-0.007635815477475192
2025-03-19 14:50:37.470501,0.05,0.06,0.12,0.003272492347489368,0.007635815477475192,-0.00545415391248228
2025-03-19 14:50:37.529089,0.06,0.02,0.08,0.022907446432425576,0.013089969389957472,-0.008726646259971648
2025-03-19 14:50:37.589444,0.05,-0.03,0.02,0.008726646259971648,0.01090830782496456,-0.001090830782496456
2025-03-19 14:50:37.649702,0.11,0.05,0.08,0.007635815477475192,0.008726646259971648,-0.00545415391248228
2025-03-19 14:50:37.710508,0.13,0.01,0.11,0.02399827721492203,0.001090830782496456,-0.006544984694978736
2025-03-19 14:50:37.769962,0.04,0.0,0.02,0.004363323129985824,-0.002181661564992912,-0.003272492347489368
2025-03-19 14:50:37.830320,0.05,0.04,0.1,0.007635815477475192,0.002181661564992912,0.0
2025-03-19 14:50:37.890702,0.06,-0.05,0.04,0.017453292519943295,0.01090830782496456,0.0
2025-03-19 14:50:37.951070,0.09,0.01,0.06,-0.00545415391248228,0.001090830782496456,-0.001090830782496456
2025-03-19 14:50:38.011585,0.09,0.07,0.09,0.018544123302439753,0.004363323129985824,-0.002181661564992912
2025-03-19 14:50:38.070899,0.04,0.04,0.02,0.013089969389957472,0.0,-0.003272492347489368
2025-03-19 14:50:38.131386,0.04,-0.03,0.04,-0.009817477042468103,0.003272492347489368,0.006544984694978736
2025-03-19 14:50:38.191605,0.09,0.02,0.1,-0.014180800172453928,-0.00545415391248228,0.006544984694978736
2025-03-19 14:50:38.252158,0.05,-0.19,-0.06,-0.050178215994836975,-0.02399827721492203,0.011999138607461015
2025-03-19 14:50:38.312511,0.15,0.14,0.22,-0.0719948316447661,-0.04145156973486533,0.015271630954950384
2025-03-19 14:50:38.372858,0.08,0.15,0.12,0.031634092692397225,-0.009817477042468103,-0.008726646259971648
2025-03-19 14:50:38.432758,-0.13,-0.01,-0.08,0.02181661564992912,0.0,0.003272492347489368
2025-03-19 14:50:38.493156,0.1,-0.03,0.05,-0.00545415391248228,-0.002181661564992912,0.01090830782496456
2025-03-19 14:50:38.553411,0.1,0.07,0.14,0.02945243112740431,0.008726646259971648,0.002181661564992912
2025-03-19 14:50:38.613941,0.0,-0.14,-0.08,0.02181661564992912,0.002181661564992912,-0.006544984694978736
2025-03-19 14:50:38.673178,0.06,0.05,0.11,-0.016362461737446838,0.002181661564992912,-0.004363323129985824
2025-03-19 14:50:38.733479,0.08,0.01,0.07,0.016362461737446838,0.007635815477475192,-0.014180800172453928
2025-03-19 14:50:38.793737,0.07,0.02,0.06,0.01090830782496456,0.00545415391248228,-0.003272492347489368
2025-03-19 14:50:38.853776,0.09,-0.01,0.06,-0.003272492347489368,-0.001090830782496456,0.004363323129985824
2025-03-19 14:50:38.914325,0.07,0.03,0.05,0.018544123302439753,-0.004363323129985824,0.0
2025-03-19 14:50:38.973414,0.07,0.01,0.05,0.013089969389957472,0.0,0.002181661564992912
2025-03-19 14:50:39.032029,0.09,0.03,0.12,0.025089107997418487,0.003272492347489368,-0.002181661564992912
2025-03-19 14:50:39.091255,0.02,0.0,0.02,0.05999569303730508,0.01090830782496456,-0.008726646259971648
2025-03-19 14:50:39.152763,0.03,-0.07,0.0,0.032724923474893676,0.01090830782496456,-0.004363323129985824
2025-03-19 14:50:39.214279,0.02,0.0,0.03,0.014180800172453928,0.009817477042468103,-0.001090830782496456
2025-03-19 14:50:39.273108,0.06,0.0,0.04,0.014180800172453928,0.013089969389957472,-0.00545415391248228
2025-03-19 14:50:39.333320,0.06,0.08,0.04,0.017453292519943295,0.016362461737446838,-0.007635815477475192
2025-03-19 14:50:39.392491,0.11,0.03,0.09,0.02399827721492203,0.008726646259971648,-0.004363323129985824
2025-03-19 14:50:39.453100,0.1,0.03,0.09,0.019634954084936207,0.00545415391248228,-0.003272492347489368
2025-03-19 14:50:39.513416,0.05,0.04,0.03,0.02945243112740431,-0.002181661564992912,-0.004363323129985824
2025-03-19 14:50:39.573958,0.11,-0.01,0.04,0.011999138607461015,-0.002181661564992912,-0.002181661564992912
2025-03-19 14:50:39.633782,0.06,0.14,0.17,0.038179077387375956,0.004363323129985824,-0.004363323129985824
2025-03-19 14:50:39.692784,0.05,0.0,0.02,0.05999569303730508,0.006544984694978736,-0.006544984694978736
2025-03-19 14:50:39.753051,0.01,-0.03,-0.01,0.008726646259971648,0.00545415391248228,0.003272492347489368
2025-03-19 14:50:39.813403,0.06,0.04,0.04,0.00545415391248228,0.011999138607461015,0.002181661564992912
2025-03-19 14:50:39.873717,0.08,0.0,0.06,0.026179938779914945,0.014180800172453928,-0.007635815477475192
2025-03-19 14:50:39.932847,0.07,0.06,0.06,0.008726646259971648,0.01090830782496456,-0.003272492347489368
2025-03-19 14:50:39.993326,0.11,0.04,0.07,0.006544984694978736,0.004363323129985824,0.001090830782496456
2025-03-19 14:50:40.053633,0.05,0.04,0.06,-0.002181661564992912,0.0,0.002181661564992912
2025-03-19 14:50:40.113949,0.08,0.05,0.1,-0.003272492347489368,-0.006544984694978736,0.002181661564992912
2025-03-19 14:50:40.174529,0.09,0.08,0.08,-0.001090830782496456,-0.003272492347489368,0.001090830782496456
2025-03-19 14:50:40.233678,0.04,0.06,0.07,0.008726646259971648,-0.003272492347489368,0.001090830782496456
2025-03-19 14:50:40.294127,0.1,0.04,0.09,-0.009817477042468103,-0.004363323129985824,0.008726646259971648
2025-03-19 14:50:40.354422,0.09,0.03,0.08,0.00545415391248228,-0.003272492347489368,0.0
2025-03-19 14:50:40.414687,0.01,0.01,0.0,0.0,-0.002181661564992912,-0.002181661564992912
2025-03-19 14:50:40.475805,0.09,0.05,0.08,0.001090830782496456,0.002181661564992912,0.001090830782496456
2025-03-19 14:50:40.536772,0.07,0.03,0.1,0.011999138607461015,0.00545415391248228,-0.004363323129985824
2025-03-19 14:50:40.597058,0.09,0.04,0.07,0.007635815477475192,0.002181661564992912,-0.001090830782496456
2025-03-19 14:50:40.657462,0.08,0.04,0.1,0.008726646259971648,0.00545415391248228,-0.003272492347489368
2025-03-19 14:50:40.717761,0.06,0.05,0.07,0.00545415391248228,0.003272492347489368,-0.001090830782496456
2025-03-19 14:50:40.778322,0.12,0.03,0.11,-0.006544984694978736,0.003272492347489368,0.001090830782496456
2025-03-19 14:50:40.837530,0.09,0.08,0.08,0.009817477042468103,0.002181661564992912,-0.001090830782496456
2025-03-19 14:50:40.898566,0.07,0.0,0.06,-0.01090830782496456,-0.003272492347489368,0.006544984694978736
2025-03-19 14:50:40.959499,0.15,0.05,0.15,-0.009817477042468103,-0.013089969389957472,0.008726646259971648
2025-03-19 14:50:41.019636,0.04,0.03,0.06,0.00545415391248228,-0.001090830782496456,0.001090830782496456
2025-03-19 14:50:41.080089,0.11,0.1,0.04,0.009817477042468103,0.001090830782496456,0.002181661564992912
2025-03-19 14:50:41.139242,0.09,0.0,0.12,0.013089969389957472,0.01090830782496456,0.0
2025-03-19 14:50:41.200019,0.08,-0.01,0.07,0.011999138607461015,0.008726646259971648,-0.004363323129985824
2025-03-19 14:50:41.261038,0.12,0.03,0.13,0.007635815477475192,0.008726646259971648,-0.011999138607461015
2025-03-19 14:50:41.321071,0.07,0.04,0.1,0.001090830782496456,0.0,-0.004363323129985824
2025-03-19 14:50:41.381674,0.13,0.04,0.13,-0.004363323129985824,0.004363323129985824,0.003272492347489368
2025-03-19 14:50:41.440956,0.09,0.07,0.1,-0.004363323129985824,-0.003272492347489368,0.00545415391248228
2025-03-19 14:50:41.501218,0.1,0.02,0.09,0.008726646259971648,0.0,0.002181661564992912
2025-03-19 14:50:41.561485,0.07,0.04,0.09,-0.004363323129985824,-0.001090830782496456,0.001090830782496456
2025-03-19 14:50:41.622183,0.12,0.03,0.11,-0.006544984694978736,-0.009817477042468103,0.003272492347489368
2025-03-19 14:50:41.683584,0.11,0.02,0.11,-0.007635815477475192,-0.004363323129985824,0.004363323129985824
2025-03-19 14:50:41.742809,0.06,0.01,0.09,-0.00545415391248228,-0.007635815477475192,0.002181661564992912
2025-03-19 14:50:41.803213,0.09,0.04,0.11,0.003272492347489368,-0.006544984694978736,-0.003272492347489368
2025-03-19 14:50:41.863512,0.07,0.03,0.11,0.008726646259971648,0.004363323129985824,-0.004363323129985824
2025-03-19 14:50:41.923725,0.13,0.05,0.11,0.01090830782496456,0.00545415391248228,-0.001090830782496456
2025-03-19 14:50:41.984171,0.11,0.02,0.12,0.022907446432425576,0.002181661564992912,0.001090830782496456
2025-03-19 14:50:42.043757,0.1,-0.02,0.05,0.013089969389957472,0.003272492347489368,-0.002181661564992912
2025-03-19 14:50:42.105087,0.1,0.05,0.15,-0.006544984694978736,-0.001090830782496456,0.001090830782496456
2025-03-19 14:50:42.165336,0.07,0.06,0.08,0.0,0.001090830782496456,-0.002181661564992912
2025-03-19 14:50:42.225683,0.14,0.01,0.1,-0.00545415391248228,0.00545415391248228,-0.003272492347489368
2025-03-19 14:50:42.286163,0.12,0.06,0.14,-0.002181661564992912,-0.00545415391248228,-0.004363323129985824
2025-03-19 14:50:42.345465,0.12,0.07,0.11,-0.001090830782496456,-0.007635815477475192,0.002181661564992912
2025-03-19 14:50:42.405786,0.09,0.01,0.1,-0.002181661564992912,-0.006544984694978736,0.008726646259971648
2025-03-19 14:50:42.466412,0.12,0.03,0.15,0.001090830782496456,-0.009817477042468103,0.00545415391248228
2025-03-19 14:50:42.527495,0.03,0.06,0.1,0.020725784867432664,0.004363323129985824,-0.001090830782496456
2025-03-19 14:50:42.587903,0.15,0.03,0.14,0.032724923474893676,0.01090830782496456,-0.006544984694978736
2025-03-19 14:50:42.647159,0.06,0.15,0.2,0.0916297857297023,0.03599741582238305,-0.020725784867432664
2025-03-19 14:50:42.705933,0.07,-0.12,0.06,0.06763150851478027,0.022907446432425576,-0.02181661564992912
2025-03-19 14:50:42.765662,0.07,0.08,0.08,0.039269908169872414,0.02181661564992912,-0.016362461737446838
2025-03-19 14:50:42.825505,0.15,0.0,0.08,0.04908738521234052,0.017453292519943295,-0.011999138607461015
2025-03-19 14:50:42.885248,0.03,0.0,0.02,0.02945243112740431,0.009817477042468103,-0.019634954084936207
2025-03-19 14:50:42.944483,0.08,0.07,0.1,0.015271630954950384,0.011999138607461015,-0.01090830782496456
2025-03-19 14:50:43.005586,0.12,0.06,0.13,0.015271630954950384,0.006544984694978736,-0.01090830782496456
2025-03-19 14:50:43.065732,0.14,0.04,0.15,0.0272707695624114,0.00545415391248228,-0.004363323129985824
2025-03-19 14:50:43.125868,0.04,0.02,0.06,0.020725784867432664,0.007635815477475192,0.002181661564992912
2025-03-19 14:50:43.185889,0.1,-0.06,0.07,0.00545415391248228,0.001090830782496456,-0.003272492347489368
2025-03-19 14:50:43.245466,0.07,0.15,0.14,0.0,-0.001090830782496456,-0.013089969389957472
2025-03-19 14:50:43.305453,0.09,0.07,0.1,0.02181661564992912,-0.002181661564992912,-0.00545415391248228
2025-03-19 14:50:43.366042,0.14,0.0,0.12,0.008726646259971648,-0.006544984694978736,-0.002181661564992912
2025-03-19 14:50:43.427146,-0.11,0.09,-0.01,0.04799655442984406,0.019634954084936207,-0.009817477042468103
2025-03-19 14:50:43.488065,0.15,-0.08,0.08,-0.003272492347489368,0.001090830782496456,-0.00545415391248228
2025-03-19 14:50:43.547203,0.06,0.22,0.13,0.0,-0.006544984694978736,-0.016362461737446838
2025-03-19 14:50:43.605805,0.01,0.04,0.04,0.0272707695624114,0.003272492347489368,-0.006544984694978736
2025-03-19 14:50:43.665939,0.11,0.04,0.1,0.002181661564992912,0.002181661564992912,0.001090830782496456
2025-03-19 14:50:43.725878,0.04,0.06,0.02,0.020725784867432664,0.0,0.00545415391248228
2025-03-19 14:50:43.785996,0.1,-0.05,0.07,-0.004363323129985824,-0.001090830782496456,0.002181661564992912
2025-03-19 14:50:43.847089,0.05,0.09,0.06,0.003272492347489368,0.0,0.002181661564992912
2025-03-19 14:50:43.907349,0.06,0.0,0.12,0.004363323129985824,-0.004363323129985824,-0.004363323129985824
2025-03-19 14:50:43.967577,0.05,0.06,0.04,0.007635815477475192,0.0,0.003272492347489368
2025-03-19 14:50:44.027895,0.09,-0.01,0.1,-0.01090830782496456,-0.007635815477475192,0.006544984694978736
2025-03-19 14:50:44.087763,0.06,0.0,0.02,0.01090830782496456,-0.002181661564992912,-0.007635815477475192
2025-03-19 14:50:44.148329,0.04,0.05,0.05,-0.004363323129985824,0.001090830782496456,-0.003272492347489368
2025-03-19 14:50:44.207468,0.08,0.05,0.08,0.019634954084936207,0.003272492347489368,-0.003272492347489368
2025-03-19 14:50:44.268687,0.05,0.01,0.06,0.002181661564992912,0.003272492347489368,0.001090830782496456
2025-03-19 14:50:44.329771,0.13,0.06,0.12,0.006544984694978736,-0.01090830782496456,0.00545415391248228
2025-03-19 14:50:44.390034,0.03,-0.02,0.01,0.001090830782496456,-0.004363323129985824,0.003272492347489368
2025-03-19 14:50:44.450401,0.02,0.05,0.02,-0.002181661564992912,0.007635815477475192,-0.001090830782496456
2025-03-19 14:50:44.509829,0.07,0.06,0.08,0.016362461737446838,0.015271630954950384,-0.006544984694978736
2025-03-19 14:50:44.570169,0.06,0.03,0.07,0.011999138607461015,0.01090830782496456,-0.002181661564992912
2025-03-19 14:50:44.630773,0.05,0.02,0.06,0.004363323129985824,0.001090830782496456,0.001090830782496456
2025-03-19 14:50:44.691842,0.05,0.02,0.04,0.004363323129985824,0.001090830782496456,-0.003272492347489368
2025-03-19 14:50:44.753843,0.05,0.02,0.06,0.0,0.002181661564992912,-0.00545415391248228
2025-03-19 14:50:44.813916,0.09,0.03,0.08,0.006544984694978736,0.004363323129985824,-0.007635815477475192
2025-03-19 14:50:44.874283,0.05,0.03,0.07,0.004363323129985824,0.006544984694978736,-0.006544984694978736
2025-03-19 14:50:44.934633,0.07,0.02,0.06,0.00545415391248228,0.007635815477475192,-0.006544984694978736
2025-03-19 14:50:44.995251,0.09,0.06,0.07,0.009817477042468103,0.004363323129985824,-0.006544984694978736
2025-03-19 14:50:45.055115,0.07,0.07,0.09,0.017453292519943295,0.01090830782496456,-0.003272492347489368
2025-03-19 14:50:45.116302,0.08,0.04,0.09,0.00545415391248228,0.00545415391248228,-0.00545415391248228
2025-03-19 14:50:45.177850,0.08,0.06,0.07,0.00545415391248228,0.002181661564992912,-0.001090830782496456
2025-03-19 14:50:45.238298,0.08,0.05,0.07,0.011999138607461015,0.004363323129985824,0.003272492347489368
2025-03-19 14:50:45.298778,0.12,0.0,0.12,-0.001090830782496456,0.001090830782496456,0.00545415391248228
2025-03-19 14:50:45.358094,0.09,0.0,0.06,-0.004363323129985824,-0.006544984694978736,-0.00545415391248228
2025-03-19 14:50:45.418707,1.37,0.03,0.1,-0.004363323129985824,-0.004363323129985824,-0.009817477042468103
2025-03-19 14:50:45.479028,0.09,0.02,0.11,-0.001090830782496456,-0.006544984694978736,-0.004363323129985824
2025-03-19 14:50:45.539556,0.11,0.05,0.13,0.001090830782496456,0.0,-0.001090830782496456
2025-03-19 14:50:45.599876,1.32,0.01,0.04,0.001090830782496456,-0.00545415391248228,-0.004363323129985824
2025-03-19 14:50:45.659338,1.3800000000000001,0.04,0.11,-0.008726646259971648,-0.004363323129985824,-0.002181661564992912
2025-03-19 14:50:45.719646,0.09,0.04,0.15,-0.003272492347489368,-0.00545415391248228,-0.001090830782496456
2025-03-19 14:50:45.779755,0.09,0.06,0.08,-0.006544984694978736,-0.009817477042468103,0.002181661564992912
2025-03-19 14:50:45.840265,0.1,0.06,0.12,-0.002181661564992912,-0.003272492347489368,0.007635815477475192
2025-03-19 14:50:45.900963,0.08,0.01,0.1,0.004363323129985824,-0.004363323129985824,0.004363323129985824
2025-03-19 14:50:45.960704,0.06,0.02,0.09,0.001090830782496456,0.002181661564992912,0.0
2025-03-19 14:50:46.020854,0.08,0.01,0.09,0.001090830782496456,0.007635815477475192,0.002181661564992912
2025-03-19 14:50:46.081413,0.09,0.05,0.12,0.003272492347489368,0.003272492347489368,-0.003272492347489368
2025-03-19 14:50:46.141705,0.11,0.03,0.11,0.00545415391248228,0.0,0.0
2025-03-19 14:50:46.201997,0.09,0.05,0.09,0.004363323129985824,-0.001090830782496456,0.0
2025-03-19 14:50:46.263002,0.12,0.02,0.13,-0.002181661564992912,-0.004363323129985824,0.001090830782496456
2025-03-19 14:50:46.324940,0.08,0.01,0.09,-0.002181661564992912,-0.006544984694978736,0.001090830782496456
2025-03-19 14:50:46.385715,0.1,0.03,0.1,-0.003272492347489368,-0.003272492347489368,-0.002181661564992912
2025-03-19 14:50:46.446806,0.12,0.07,0.14,-0.004363323129985824,-0.008726646259971648,-0.002181661564992912
2025-03-19 14:50:46.508042,0.1,0.04,0.13,-0.00545415391248228,-0.00545415391248228,-0.001090830782496456
2025-03-19 14:50:46.567107,0.1,0.06,0.12,-0.006544984694978736,-0.009817477042468103,0.002181661564992912
2025-03-19 14:50:46.627712,0.06,0.06,0.11,0.002181661564992912,0.001090830782496456,0.008726646259971648
2025-03-19 14:50:46.689126,0.08,-0.02,0.07,-0.001090830782496456,-0.002181661564992912,0.013089969389957472
2025-03-19 14:50:46.750243,0.09,0.01,0.11,-0.008726646259971648,-0.002181661564992912,0.00545415391248228
2025-03-19 14:50:46.810866,0.07,0.07,0.08,0.008726646259971648,-0.001090830782496456,-0.001090830782496456
2025-03-19 14:50:46.870959,0.07,0.04,0.11,0.015271630954950384,0.008726646259971648,-0.006544984694978736
2025-03-19 14:50:46.931310,0.09,0.03,0.1,0.01090830782496456,0.008726646259971648,-0.006544984694978736
2025-03-19 14:50:46.991956,0.11,0.07,0.13,0.004363323129985824,0.008726646259971648,0.002181661564992912
2025-03-19 14:50:47.052785,0.07,0.06,0.1,-0.001090830782496456,0.0,0.01090830782496456
2025-03-19 14:50:47.113228,0.08,0.03,0.09,0.004363323129985824,0.004363323129985824,0.014180800172453928
2025-03-19 14:50:47.172558,0.08,0.08,0.13,0.00545415391248228,0.002181661564992912,0.002181661564992912
2025-03-19 14:50:47.232857,0.15,-0.05,0.05,0.001090830782496456,-0.00545415391248228,0.0
2025-03-19 14:50:47.293058,0.09,0.14,0.19,-0.015271630954950384,-0.01090830782496456,-0.009817477042468103
2025-03-19 14:50:47.353239,0.07,-0.04,0.01,0.015271630954950384,-0.013089969389957472,0.002181661564992912
2025-03-19 14:50:47.413979,0.05,0.12,0.13,-0.032724923474893676,-0.004363323129985824,0.007635815477475192
2025-03-19 14:50:47.473490,0.06,0.15,0.06,0.02945243112740431,0.009817477042468103,0.009817477042468103
2025-03-19 14:50:47.532009,0.11,-0.01,0.07,0.006544984694978736,0.02399827721492203,0.013089969389957472
2025-03-19 14:50:47.592224,0.11,0.0,0.09,0.003272492347489368,-0.002181661564992912,0.003272492347489368
2025-03-19 14:50:47.652063,0.07,0.0,0.04,0.0,-0.006544984694978736,-0.008726646259971648
2025-03-19 14:50:47.712271,0.03,0.11,0.08,-0.001090830782496456,-0.009817477042468103,-0.011999138607461015
2025-03-19 14:50:47.771682,1.31,0.06,0.01,0.009817477042468103,0.001090830782496456,-0.004363323129985824
2025-03-19 14:50:47.832727,0.02,0.09,0.04,0.008726646259971648,0.014180800172453928,0.007635815477475192
2025-03-19 14:50:47.894278,0.06,0.04,0.04,0.02181661564992912,0.02399827721492203,0.004363323129985824
2025-03-19 14:50:47.954618,0.07,0.08,0.05,0.019634954084936207,0.018544123302439753,0.0
2025-03-19 14:50:48.014777,0.16,0.0,0.12,-0.002181661564992912,-0.001090830782496456,0.011999138607461015
2025-03-19 14:50:48.073903,0.04,0.0,0.04,-0.015271630954950384,-0.020725784867432664,0.014180800172453928
2025-03-19 14:50:48.133870,0.02,0.04,0.0,-0.01090830782496456,-0.016362461737446838,0.002181661564992912
2025-03-19 14:50:48.193925,-0.03,0.09,-0.01,0.008726646259971648,0.019634954084936207,-0.01090830782496456
2025-03-19 14:50:48.254994,0.07,0.09,0.05,0.0272707695624114,0.038179077387375956,-0.016362461737446838
2025-03-19 14:50:48.316618,0.11,0.11,0.08,0.009817477042468103,0.016362461737446838,-0.003272492347489368
2025-03-19 14:50:48.375742,0.05,0.05,0.05,0.01090830782496456,0.001090830782496456,0.009817477042468103
2025-03-19 14:50:48.436448,0.03,0.02,-0.04,0.001090830782496456,-0.007635815477475192,0.014180800172453928
2025-03-19 14:50:48.496730,1.32,0.04,0.01,-0.006544984694978736,-0.003272492347489368,0.006544984694978736
2025-03-19 14:50:48.557086,1.33,0.02,-0.01,0.002181661564992912,-0.004363323129985824,0.0
2025-03-19 14:50:48.617565,1.31,0.06,0.0,-0.004363323129985824,0.003272492347489368,-0.003272492347489368
2025-03-19 14:50:48.677883,0.04,0.07,0.02,0.007635815477475192,0.007635815477475192,-0.003272492347489368
2025-03-19 14:50:48.739056,0.02,0.1,0.01,0.011999138607461015,0.011999138607461015,-0.006544984694978736
2025-03-19 14:50:48.798896,0.04,0.05,0.03,0.011999138607461015,0.013089969389957472,0.0
2025-03-19 14:50:48.859198,0.07,0.06,0.02,0.013089969389957472,0.013089969389957472,0.001090830782496456
2025-03-19 14:50:48.919732,0.05,0.08,0.01,0.00545415391248228,0.004363323129985824,0.001090830782496456
2025-03-19 14:50:48.980841,0.02,0.03,0.0,0.01090830782496456,0.004363323129985824,-0.001090830782496456
2025-03-19 14:50:49.042310,0.05,0.08,0.02,0.002181661564992912,0.001090830782496456,-0.002181661564992912
2025-03-19 14:50:49.103649,0.05,0.06,0.03,0.014180800172453928,0.003272492347489368,-0.006544984694978736
2025-03-19 14:50:49.164359,0.03,0.1,-0.01,0.017453292519943295,0.013089969389957472,-0.007635815477475192
2025-03-19 14:50:49.225137,0.03,0.03,-0.06,0.016362461737446838,0.02945243112740431,-0.00545415391248228
2025-03-19 14:50:49.283653,-0.04,-0.22,-0.29,-0.09053895494720585,-0.019634954084936207,0.020725784867432664
2025-03-19 14:50:49.342489,0.37,-0.01,0.15,-0.2945243112740431,-0.09817477042468103,0.07635815477475191
2025-03-19 14:50:49.403205,1.35,0.68,0.51,-0.21707532571679475,-0.0818123086872342,0.04908738521234052
2025-03-19 14:50:49.464515,0.08,0.11,0.14,0.0545415391248228,-0.06544984694978735,0.013089969389957472
2025-03-19 14:50:49.524818,-0.06,-0.43,-0.51,-0.04690572364734761,-0.06763150851478027,0.032724923474893676
2025-03-19 14:50:49.583545,-0.1,0.47000000000000003,0.1,-0.07635815477475191,-0.05126904677733343,0.04036073895236887
2025-03-19 14:50:49.642905,0.13,0.11,0.0,0.031634092692397225,-0.009817477042468103,0.011999138607461015
2025-03-19 14:50:49.703092,0.0,0.07,0.08,0.004363323129985824,-0.003272492347489368,-0.009817477042468103
2025-03-19 14:50:49.763394,-0.02,0.02,-0.05,-0.006544984694978736,-0.022907446432425576,-0.019634954084936207
2025-03-19 14:50:49.823601,0.15,0.11,0.0,-0.00545415391248228,0.004363323129985824,-0.025089107997418487
2025-03-19 14:50:49.883682,0.0,0.22,0.05,0.026179938779914945,0.018544123302439753,-0.017453292519943295
2025-03-19 14:50:49.942451,0.1,0.23,0.11,0.06544984694978735,0.031634092692397225,-0.013089969389957472
2025-03-19 14:50:50.001100,0.0,0.01,-0.04,0.08944812416470939,0.044724062082354694,-0.01090830782496456
2025-03-19 14:50:50.060995,-0.05,-0.03,-0.15,0.026179938779914945,0.02181661564992912,0.006544984694978736
2025-03-19 14:50:50.121484,0.07,0.17,0.06,0.026179938779914945,0.025089107997418487,0.00545415391248228
2025-03-19 14:50:50.182692,0.04,0.06,-0.07,0.044724062082354694,0.025089107997418487,0.002181661564992912
2025-03-19 14:50:50.241409,0.0,0.07,-0.05,0.02399827721492203,0.020725784867432664,0.003272492347489368
2025-03-19 14:50:50.299913,0.02,0.07,-0.01,0.026179938779914945,0.022907446432425576,-0.001090830782496456
2025-03-19 14:50:50.359996,0.02,0.09,-0.02,0.025089107997418487,0.026179938779914945,-0.007635815477475192
2025-03-19 14:50:50.420418,0.06,0.18,-0.01,0.011999138607461015,0.018544123302439753,-0.004363323129985824
2025-03-19 14:50:50.480603,0.1,0.07,-0.01,0.05781403147231216,0.017453292519943295,-0.014180800172453928
2025-03-19 14:50:50.540635,0.03,0.09,-0.04,0.009817477042468103,0.0,-0.001090830782496456
2025-03-19 14:50:50.600594,0.01,0.18,-0.03,-0.009817477042468103,-0.00545415391248228,0.009817477042468103
2025-03-19 14:50:50.661004,0.06,0.12,0.0,0.00545415391248228,-0.003272492347489368,0.018544123302439753
2025-03-19 14:50:50.721739,0.0,0.1,-0.06,0.0,0.0,0.013089969389957472
2025-03-19 14:50:50.782060,-0.02,0.07,-0.11,0.013089969389957472,0.00545415391248228,-0.002181661564992912
2025-03-19 14:50:50.841028,0.01,0.12,-0.01,0.017453292519943295,0.022907446432425576,-0.016362461737446838
2025-03-19 14:50:50.899864,0.02,0.06,-0.06,0.019634954084936207,0.0272707695624114,-0.017453292519943295
2025-03-19 14:50:50.960063,0.09,0.11,0.0,0.011999138607461015,0.014180800172453928,-0.002181661564992912
2025-03-19 14:50:51.019966,0.02,0.08,-0.02,0.002181661564992912,0.0,0.004363323129985824
2025-03-19 14:50:51.080258,0.02,0.1,-0.05,0.0,-0.004363323129985824,0.00545415391248228
2025-03-19 14:50:51.141047,0.03,0.11,0.0,-0.003272492347489368,-0.00545415391248228,0.008726646259971648
2025-03-19 14:50:51.199940,0.01,0.07,-0.04,0.01090830782496456,-0.002181661564992912,0.006544984694978736
2025-03-19 14:50:51.260021,-0.04,0.07,-0.07,0.1538071403320003,0.011999138607461015,-0.001090830782496456
2025-03-19 14:50:51.319861,-0.02,0.04,-0.12,0.020725784867432664,0.022907446432425576,-0.00545415391248228
2025-03-19 14:50:51.380163,0.07,0.08,-0.01,0.011999138607461015,0.011999138607461015,-0.01090830782496456
2025-03-19 14:50:51.440293,0.02,0.08,-0.05,0.007635815477475192,0.0,-0.006544984694978736
2025-03-19 14:50:51.499427,0.01,0.13,-0.03,0.0,-0.001090830782496456,0.002181661564992912
2025-03-19 14:50:51.559808,0.03,0.13,-0.02,0.003272492347489368,-0.003272492347489368,0.011999138607461015
2025-03-19 14:50:51.620484,0.03,0.06,-0.05,0.013089969389957472,0.007635815477475192,-0.001090830782496456
2025-03-19 14:50:51.681296,-0.02,0.12,-0.06,0.020725784867432664,0.014180800172453928,-0.001090830782496456
2025-03-19 14:50:51.742783,0.03,0.06,-0.01,0.013089969389957472,0.011999138607461015,0.002181661564992912
2025-03-19 14:50:51.801629,0.01,0.13,0.01,0.02945243112740431,0.008726646259971648,0.003272492347489368
2025-03-19 14:50:51.860277,0.0,0.07,-0.04,0.03490658503988659,0.011999138607461015,-0.008726646259971648
2025-03-19 14:50:51.920428,-0.02,0.07,-0.12,0.0545415391248228,0.02399827721492203,-0.017453292519943295
2025-03-19 14:50:51.981248,0.03,0.1,-0.07,0.037088246604879506,0.02399827721492203,-0.014180800172453928
2025-03-19 14:50:52.042412,0.03,0.06,-0.07,0.16689710972195776,0.020725784867432664,-0.009817477042468103
2025-03-19 14:50:52.101074,-0.01,0.13,-0.07,0.028361600344907856,0.020725784867432664,-0.014180800172453928
2025-03-19 14:50:52.159528,0.01,0.07,-0.1,0.030543261909900768,0.026179938779914945,-0.015271630954950384
2025-03-19 14:50:52.218817,0.04,0.1,-0.01,0.031634092692397225,0.0272707695624114,-0.02181661564992912
2025-03-19 14:50:52.279423,-0.03,0.11,-0.09,0.055632369907319255,0.03490658503988659,-0.02399827721492203
2025-03-19 14:50:52.339885,-0.04,0.16,-0.11,0.037088246604879506,0.032724923474893676,-0.020725784867432664
2025-03-19 14:50:52.400184,0.03,0.08,-0.05,0.05999569303730508,0.044724062082354694,-0.02945243112740431
2025-03-19 14:50:52.459875,-0.03,0.14,-0.04,0.05890486225480862,0.05126904677733343,-0.03381575425739013
2025-03-19 14:50:52.518620,0.0,0.07,-0.06,0.04254240051736178,0.044724062082354694,-0.026179938779914945
2025-03-19 14:50:52.579313,0.01,0.13,-0.04,0.015271630954950384,0.018544123302439753,-0.007635815477475192
2025-03-19 14:50:52.639601,0.04,0.18,-0.04,0.017453292519943295,0.011999138607461015,0.001090830782496456
2025-03-19 14:50:52.699800,-0.07,0.11,-0.15,0.009817477042468103,0.011999138607461015,0.01090830782496456
2025-03-19 14:50:52.758518,0.06,0.06,-0.02,-0.02399827721492203,-0.003272492347489368,0.015271630954950384
2025-03-19 14:50:52.818931,0.05,0.18,-0.01,0.004363323129985824,-0.022907446432425576,0.00545415391248228
2025-03-19 14:50:52.879212,-0.08,0.08,-0.17,-0.03599741582238305,-0.030543261909900768,0.020725784867432664
2025-03-19 14:50:52.939825,-0.04,0.21,-0.05,-0.020725784867432664,-0.014180800172453928,0.022907446432425576
2025-03-19 14:50:53.000374,0.01,0.08,-0.12,0.014180800172453928,0.006544984694978736,0.007635815477475192
2025-03-19 14:50:53.059799,-0.02,0.12,-0.1,0.001090830782496456,0.02181661564992912,-0.016362461737446838
2025-03-19 14:50:53.118686,-0.03,0.15,-0.07,0.017453292519943295,0.02399827721492203,-0.014180800172453928
2025-03-19 14:50:53.179127,0.08,0.15,0.0,0.003272492347489368,0.015271630954950384,-0.009817477042468103
2025-03-19 14:50:53.240135,-0.01,0.15,-0.11,0.032724923474893676,-0.00545415391248228,-0.00545415391248228
2025-03-19 14:50:53.300658,0.0,0.03,-0.13,-0.008726646259971648,-0.008726646259971648,0.003272492347489368
2025-03-19 14:50:53.359384,0.0,0.16,-0.07,-0.02399827721492203,-0.008726646259971648,0.008726646259971648
2025-03-19 14:50:53.420177,-0.03,0.12,-0.08,0.0,-0.008726646259971648,0.009817477042468103
2025-03-19 14:50:53.481078,-0.01,0.15,-0.07,0.0,-0.011999138607461015,0.011999138607461015
2025-03-19 14:50:53.541197,0.01,0.07,-0.1,-0.002181661564992912,-0.011999138607461015,0.00545415391248228
2025-03-19 14:50:53.601748,0.0,0.06,-0.08,-0.007635815477475192,-0.014180800172453928,0.003272492347489368
2025-03-19 14:50:53.661044,-0.02,0.14,-0.1,-0.001090830782496456,-0.017453292519943295,0.002181661564992912
2025-03-19 14:50:53.719647,-0.01,0.09,-0.11,-0.022907446432425576,-0.015271630954950384,0.011999138607461015
2025-03-19 14:50:53.779448,0.06,0.07,-0.02,-0.04908738521234052,-0.039269908169872414,0.032724923474893676
2025-03-19 14:50:53.839146,0.01,0.07,-0.1,-0.04254240051736178,-0.04690572364734761,0.025089107997418487
2025-03-19 14:50:53.899378,-0.07,0.08,-0.16,-0.038179077387375956,-0.04581489286485115,0.011999138607461015
2025-03-19 14:50:53.958377,-0.01,0.08,-0.08,-0.03381575425739013,-0.03599741582238305,0.00545415391248228
2025-03-19 14:50:54.018130,-0.08,0.17,-0.12,-0.013089969389957472,-0.013089969389957472,-0.003272492347489368
2025-03-19 14:50:54.078382,-0.03,0.09,-0.12,-0.002181661564992912,0.015271630954950384,-0.002181661564992912
2025-03-19 14:50:54.138656,0.01,0.09,-0.05,0.015271630954950384,0.020725784867432664,-0.006544984694978736
2025-03-19 14:50:54.199033,0.06,0.03,-0.09,0.003272492347489368,0.0,-0.003272492347489368
2025-03-19 14:50:54.258982,0.02,0.11,-0.03,-0.028361600344907856,-0.02945243112740431,0.007635815477475192
2025-03-19 14:50:54.317714,-0.03,0.11,-0.07,-0.020725784867432664,-0.030543261909900768,0.009817477042468103
2025-03-19 14:50:54.377898,-0.13,0.12,-0.14,-0.001090830782496456,0.00545415391248228,0.0
2025-03-19 14:50:54.438041,-0.05,0.12,-0.07,0.04036073895236887,0.044724062082354694,-0.017453292519943295
2025-03-19 14:50:54.498423,0.09,0.04,-0.03,0.03599741582238305,0.028361600344907856,-0.016362461737446838
2025-03-19 14:50:54.559379,0.14,0.04,0.03,0.019634954084936207,0.002181661564992912,0.0
2025-03-19 14:50:54.619272,-0.07,0.13,-0.1,0.020725784867432664,-0.003272492347489368,0.01090830782496456
2025-03-19 14:50:54.679432,0.0,0.03,-0.07,0.015271630954950384,0.004363323129985824,0.009817477042468103
2025-03-19 14:50:54.738998,-0.09,0.21,-0.08,0.07963064712224129,0.05890486225480862,-0.017453292519943295
2025-03-19 14:50:54.799309,-0.13,0.07,-0.17,0.11017390903214205,0.0916297857297023,-0.022907446432425576
2025-03-19 14:50:54.859834,0.04,0.0,-0.14,0.08835729338221293,0.08617563181722002,-0.030543261909900768
2025-03-19 14:50:54.918620,0.05,0.01,-0.07,0.09599310885968812,0.08072147790473774,-0.04145156973486533
2025-03-19 14:50:54.977137,0.18,-0.03,-0.16,0.006544984694978736,0.07526732399225546,-0.016362461737446838
2025-03-19 14:50:55.037509,0.45,0.55,0.0,0.017453292519943295,0.10362892433716332,-0.011999138607461015
2025-03-19 14:50:55.097898,0.43,1.72,-0.06,0.3108867730114899,0.15707963267948966,-0.10144726277217041
2025-03-19 14:50:55.158308,0.51,2.21,-0.64,0.12762720155208535,0.10471975511965978,-0.4134248665661568
2025-03-19 14:50:55.216874,0.56,0.8,-0.21,0.2530727415391778,-0.003272492347489368,-0.6795875774952921
2025-03-19 14:50:55.275498,0.16,0.08,0.52,0.18216874067690814,0.0916297857297023,-0.7046766854927106
2025-03-19 14:50:55.336667,-0.38,-0.07,1.11,-0.037088246604879506,0.35779249665883756,-0.6654067773228381
2025-03-19 14:50:55.397264,-0.61,-0.31,0.45,0.20616701789183017,0.5028729907308662,-0.5486878835957173
2025-03-19 14:50:55.457110,-0.8,-1.1300000000000001,0.26,0.09272061651219876,0.6141377305455047,-0.4494222823885399
2025-03-19 14:50:55.517171,-0.56,-0.46,0.06,0.1308996938995747,0.6872233929727672,-0.3119776037939864
2025-03-19 14:50:55.575947,-0.7000000000000001,-0.8,-0.49,0.4308781590861001,0.6130468997630083,-0.2399827721492203
2025-03-19 14:50:55.634528,-1.01,-0.53,-1.1500000000000001,0.7810348402674625,0.495237175253391,-0.1189005552921137
2025-03-19 14:50:55.695299,-0.65,0.3,-0.54,0.6381360077604268,0.4308781590861001,-0.12871803233458182
2025-03-19 14:50:55.755840,0.09,1.06,-0.74,0.3763366199612773,0.421060682043632,-0.2181661564992912
2025-03-19 14:50:55.816142,-1.18,0.06,-0.11,0.2585268954516601,0.26725354171163174,-0.08399397025222712
2025-03-19 14:50:55.874923,1.6,-3.17,-1.95,-0.07853981633974483,0.007635815477475192,-0.11780972450961724
2025-03-19 14:50:55.933603,-1.44,0.11,-2.59,-0.22471114119426994,0.26725354171163174,-0.36324665057131983
2025-03-19 14:50:55.994071,0.02,1.1300000000000001,0.07,-0.21489366415180183,0.31525009614147576,-0.33815754257390135
2025-03-19 14:50:56.054737,0.16,0.76,0.58,-0.25416357232167425,0.25634523388666713,-0.10581058590215622
2025-03-19 14:50:56.115455,-0.2,0.6,0.01,-0.19416787928436915,0.08399397025222712,0.04254240051736178
2025-03-19 14:50:56.173953,-0.39,0.6,-0.27,-0.08290313946973066,0.09272061651219876,0.08508480103472356
2025-03-19 14:50:56.233278,-0.35000000000000003,0.43,-0.26,0.09817477042468103,0.18762289458939044,0.22689280275926285
2025-03-19 14:50:56.294723,-0.26,0.07,0.15,0.06435901616729091,0.19962203319685143,0.23671027980173096
2025-03-19 14:50:56.355128,-0.21,0.46,-0.2,0.06435901616729091,0.06326818538479445,0.27707101875409984
2025-03-19 14:50:56.415438,-0.44,-0.02,-0.25,-0.09817477042468103,0.004363323129985824,0.19525871006686563
2025-03-19 14:50:56.474042,-0.38,0.04,-0.29,-0.02945243112740431,-0.016362461737446838,0.12326387842209953
2025-03-19 14:50:56.532960,-0.21,-0.01,-0.17,-0.04254240051736178,0.08835729338221293,0.10690141668465268
2025-03-19 14:50:56.591868,-0.21,0.49,-0.01,0.016362461737446838,0.00545415391248228,0.1439896632895322
2025-03-19 14:50:56.654121,-0.33,-0.04,-0.49,-0.07090400086226964,0.019634954084936207,0.0719948316447661
2025-03-19 14:50:56.715499,-0.22,0.06,-0.23,-0.06435901616729091,0.02945243112740431,0.04799655442984406
2025-03-19 14:50:56.774712,-0.27,0.0,-0.19,-0.002181661564992912,0.05781403147231216,0.03599741582238305
2025-03-19 14:50:56.833288,-0.14,0.2,-0.26,0.055632369907319255,0.09490227807719166,0.06872233929727672
2025-03-19 14:50:56.891985,-0.25,0.34,-0.18,-0.026179938779914945,0.09926560120717749,-0.007635815477475192
2025-03-19 14:50:56.952470,-0.17,0.11,-0.01,-0.006544984694978736,0.07744898555724837,-0.001090830782496456
2025-03-19 14:50:57.012824,-0.32,0.27,-0.18,0.07308566242726255,0.10690141668465268,-0.06217735460229799
2025-03-19 14:50:57.074128,-0.42,0.47000000000000003,0.91,0.10362892433716332,0.10581058590215622,-0.02399827721492203
2025-03-19 14:50:57.134103,-0.25,0.07,-0.38,0.006544984694978736,0.1189005552921137,0.05890486225480862
2025-03-19 14:50:57.192882,-0.27,0.01,-0.14,0.039269908169872414,0.09926560120717749,0.04036073895236887
2025-03-19 14:50:57.253093,-0.03,0.13,0.0,0.08835729338221293,0.06763150851478027,-0.13744467859455345
2025-03-19 14:50:57.313411,-0.06,0.22,0.22,-0.025089107997418487,0.10799224746714914,-0.284706834231575
2025-03-19 14:50:57.374623,0.84,-0.27,0.37,0.21598449493429828,-0.009817477042468103,-0.5650503453331642
2025-03-19 14:50:57.435394,0.97,1.45,2.94,0.7232208087951503,0.04581489286485115,-0.7264933011426397
2025-03-19 14:50:57.494426,-1.6300000000000001,1.16,1.59,1.7300576210393792,0.10690141668465268,-0.4690572364734761
2025-03-19 14:50:57.554978,-2.69,-2.25,1.53,2.0136736244884577,0.5999569303730508,0.24434609527920614
2025-03-19 14:50:57.615526,-0.8,0.79,-0.81,1.983130362578557,0.8584838258247108,0.6141377305455047
2025-03-19 14:50:57.676022,-0.23,-0.17,-2.7,1.5424347264499887,0.6185010536754906,0.2279836335417593
2025-03-19 14:50:57.734571,0.16,-2.39,-5.54,-0.48323803664593,0.3043417883165112,0.2399827721492203
2025-03-19 14:50:57.794044,1.74,-0.17,1.62,-0.7308566242726255,0.2781618495365963,0.12217304763960307
2025-03-19 14:50:57.855520,-0.6,0.05,-0.53,0.18762289458939044,-0.08944812416470939,0.03490658503988659
2025-03-19 14:50:57.915798,-0.26,0.23,-0.61,-0.00545415391248228,-0.055632369907319255,-0.06654067773228381
2025-03-19 14:50:57.976299,-0.17,0.2,-0.33,-0.002181661564992912,-0.06435901616729091,-0.06544984694978735
2025-03-19 14:50:58.034806,-0.3,0.25,-0.38,0.04145156973486533,-0.050178215994836975,-0.03490658503988659
2025-03-19 14:50:58.093385,-0.26,0.17,-0.38,0.00545415391248228,-0.026179938779914945,0.026179938779914945
2025-03-19 14:50:58.153676,-0.26,0.17,-0.33,0.015271630954950384,-0.01090830782496456,-0.001090830782496456
2025-03-19 14:50:58.214390,-0.26,0.19,-0.34,0.10253809355466686,-0.04690572364734761,-0.025089107997418487
2025-03-19 14:50:58.275712,-0.26,0.21,-0.25,0.050178215994836975,-0.020725784867432664,-0.018544123302439753
2025-03-19 14:50:58.334758,-0.32,0.31,-0.14,0.039269908169872414,-0.028361600344907856,0.007635815477475192
2025-03-19 14:50:58.393486,-0.23,0.14,-0.22,0.017453292519943295,-0.030543261909900768,0.006544984694978736
2025-03-19 14:50:58.452018,-0.24,0.2,-0.12,0.02945243112740431,-0.03599741582238305,0.025089107997418487
2025-03-19 14:50:58.512099,-0.22,0.13,-0.2,0.05126904677733343,-0.04690572364734761,0.019634954084936207
2025-03-19 14:50:58.572363,-0.33,0.23,-0.18,-0.01090830782496456,-0.0272707695624114,0.02399827721492203
2025-03-19 14:50:58.633315,-0.21,0.07,-0.21,-0.05235987755982989,0.009817477042468103,0.05999569303730508
2025-03-19 14:50:58.693106,-0.21,0.03,-0.32,0.01090830782496456,0.03381575425739013,0.08617563181722002
2025-03-19 14:50:58.751780,-0.24,0.15,-0.12,-0.030543261909900768,0.01090830782496456,0.05126904677733343
2025-03-19 14:50:58.812197,-0.19,0.01,-0.25,-0.02399827721492203,0.020725784867432664,0.0272707695624114
2025-03-19 14:50:58.872646,-0.28,0.13,-0.15,-0.011999138607461015,0.008726646259971648,0.044724062082354694
2025-03-19 14:50:58.933860,-0.15,0.04,-0.16,0.008726646259971648,-0.009817477042468103,0.05345070834232634
2025-03-19 14:50:58.993777,0.02,0.07,0.08,0.031634092692397225,-0.03381575425739013,0.014180800172453928
2025-03-19 14:50:59.052683,0.05,0.26,0.11,0.1636246173744684,-0.04036073895236887,-0.01090830782496456
2025-03-19 14:50:59.112937,-0.01,0.13,0.14,0.05126904677733343,-0.04036073895236887,0.006544984694978736
2025-03-19 14:50:59.173217,0.0,0.24,0.23,0.014180800172453928,-0.05999569303730508,0.007635815477475192
2025-03-19 14:50:59.233706,-0.03,0.06,-0.02,0.04581489286485115,-0.07090400086226964,0.004363323129985824
2025-03-19 14:50:59.292150,0.06,0.16,0.17,0.06544984694978735,-0.07635815477475191,-0.01090830782496456
2025-03-19 14:50:59.350718,0.03,0.03,0.01,0.08508480103472356,-0.08508480103472356,-0.02181661564992912
2025-03-19 14:50:59.409609,-0.01,0.25,0.11,0.044724062082354694,-0.08508480103472356,-0.02181661564992912
2025-03-19 14:50:59.469879,0.02,0.1,0.03,0.04145156973486533,-0.09053895494720585,-0.04690572364734761
2025-03-19 14:50:59.531568,-0.06,0.29,0.17,0.04145156973486533,-0.09053895494720585,-0.05781403147231216
2025-03-19 14:50:59.590905,0.05,0.13,0.11,-0.032724923474893676,-0.055632369907319255,-0.04690572364734761
2025-03-19 14:50:59.649627,0.0,0.04,0.05,0.018544123302439753,-0.0818123086872342,-0.08508480103472356
2025-03-19 14:50:59.708675,0.01,0.15,-0.03,-0.04908738521234052,-0.05235987755982989,-0.055632369907319255
2025-03-19 14:50:59.769324,0.0,0.08,0.13,-0.019634954084936207,-0.06763150851478027,-0.030543261909900768
2025-03-19 14:50:59.829628,-0.02,0.24,0.09,-0.032724923474893676,-0.07417649320975901,0.007635815477475192
2025-03-19 14:50:59.889961,0.01,0.16,0.06,-0.06654067773228381,-0.039269908169872414,0.07526732399225546
2025-03-19 14:50:59.948518,-0.04,0.26,0.12,-0.06981317007977318,0.00545415391248228,0.13744467859455345
2025-03-19 14:51:00.007197,0.03,0.1,-0.01,0.017453292519943295,0.011999138607461015,0.14944381720201447
2025-03-19 14:51:00.067435,0.01,-0.05,-0.06,0.07853981633974483,0.008726646259971648,0.0719948316447661
2025-03-19 14:51:00.127589,0.05,0.07,0.03,0.07635815477475191,0.019634954084936207,0.025089107997418487
2025-03-19 14:51:00.188070,0.06,0.09,0.01,0.05999569303730508,0.0272707695624114,0.030543261909900768
2025-03-19 14:51:00.246498,0.03,0.05,0.03,0.04581489286485115,-0.016362461737446838,0.055632369907319255
2025-03-19 14:51:00.305152,0.0,-0.02,0.06,-0.008726646259971648,-0.05781403147231216,0.022907446432425576
2025-03-19 14:51:00.363750,0.0,0.03,0.04,-0.019634954084936207,-0.06763150851478027,-0.044724062082354694
2025-03-19 14:51:00.423965,0.12,0.05,0.13,-0.1407171709420428,-0.0719948316447661,-0.04254240051736178
2025-03-19 14:51:00.483961,0.0,0.09,-0.04,-0.0719948316447661,-0.07090400086226964,-0.04799655442984406
2025-03-19 14:51:00.544276,-0.13,0.28,0.06,0.017453292519943295,-0.06217735460229799,-0.031634092692397225
2025-03-19 14:51:00.603453,0.04,0.04,-0.08,0.039269908169872414,-0.030543261909900768,-0.02945243112740431
2025-03-19 14:51:00.663316,-0.02,0.1,0.02,0.04145156973486533,-0.019634954084936207,-0.017453292519943295
2025-03-19 14:51:00.723535,-0.04,0.15,0.01,-0.05345070834232634,0.003272492347489368,0.019634954084936207
2025-03-19 14:51:00.783609,-0.01,0.15,0.02,-0.06217735460229799,0.025089107997418487,0.05235987755982989
2025-03-19 14:51:00.843891,-0.06,0.12,-0.03,-0.055632369907319255,0.028361600344907856,0.0719948316447661
2025-03-19 14:51:00.902579,0.07,0.08,-0.02,-0.030543261909900768,0.019634954084936207,0.08399397025222712
2025-03-19 14:51:00.961178,-0.01,0.07,0.0,-0.019634954084936207,0.0272707695624114,0.0916297857297023
2025-03-19 14:51:01.021091,0.01,0.09,0.04,0.0545415391248228,0.04799655442984406,0.07853981633974483
2025-03-19 14:51:01.082135,0.05,-0.06,-0.01,0.09053895494720585,0.020725784867432664,0.07090400086226964
2025-03-19 14:51:01.142446,-0.05,-0.07,-0.12,0.10362892433716332,-0.030543261909900768,-0.002181661564992912
2025-03-19 14:51:01.201180,0.07,0.13,0.1,0.03490658503988659,-0.002181661564992912,-0.03490658503988659
2025-03-19 14:51:01.259770,0.0,0.01,-0.1,0.06217735460229799,-0.009817477042468103,-0.05781403147231216
2025-03-19 14:51:01.318369,0.0,0.13,0.01,0.07526732399225546,-0.001090830782496456,-0.07417649320975901
2025-03-19 14:51:01.378139,0.0,0.13,0.0,0.04799655442984406,0.03381575425739013,-0.038179077387375956
2025-03-19 14:51:01.438542,0.01,0.1,-0.06,0.04363323129985824,0.0545415391248228,0.0
2025-03-19 14:51:01.498838,-0.02,0.11,-0.07,0.022907446432425576,0.0916297857297023,0.015271630954950384
2025-03-19 14:51:01.558148,0.02,-0.09,-0.04,0.04254240051736178,0.08290313946973066,-0.022907446432425576
2025-03-19 14:51:01.619105,0.01,0.01,-0.02,0.044724062082354694,0.06544984694978735,-0.05781403147231216
2025-03-19 14:51:01.679424,-0.01,0.16,-0.02,-0.009817477042468103,0.07853981633974483,-0.044724062082354694
2025-03-19 14:51:01.739985,0.01,0.07,-0.06,0.002181661564992912,0.0719948316447661,-0.04363323129985824
2025-03-19 14:51:01.800360,0.05,-0.06,-0.02,0.022907446432425576,0.050178215994836975,-0.08508480103472356
2025-03-19 14:51:01.859535,0.0,0.21,0.06,-0.02181661564992912,0.06217735460229799,-0.05890486225480862
2025-03-19 14:51:01.919314,-0.01,0.09,0.01,-0.037088246604879506,0.06981317007977318,-0.02399827721492203
2025-03-19 14:51:01.979783,0.0,0.1,0.02,-0.055632369907319255,0.06654067773228381,-0.00545415391248228
2025-03-19 14:51:02.040012,-0.01,0.08,-0.07,-0.10362892433716332,0.0916297857297023,0.016362461737446838
2025-03-19 14:51:02.100571,-0.01,0.0,-0.1,-0.03381575425739013,0.08726646259971647,0.002181661564992912
2025-03-19 14:51:02.158960,0.0,0.12,0.0,-0.013089969389957472,0.10690141668465268,0.001090830782496456
2025-03-19 14:51:02.217520,0.0,0.0,-0.11,0.007635815477475192,0.11235557059713497,-0.030543261909900768
2025-03-19 14:51:02.276754,0.02,0.13,0.04,0.011999138607461015,0.09053895494720585,-0.038179077387375956
2025-03-19 14:51:02.336881,-0.01,0.06,-0.06,0.15707963267948966,0.06763150851478027,-0.05781403147231216
2025-03-19 14:51:02.398271,0.0,0.18,-0.01,0.007635815477475192,0.06326818538479445,-0.06654067773228381
2025-03-19 14:51:02.458343,0.01,0.04,-0.04,0.04036073895236887,0.05781403147231216,-0.06544984694978735
2025-03-19 14:51:02.517086,-0.03,0.08,-0.02,0.013089969389957472,0.06326818538479445,-0.08290313946973066
2025-03-19 14:51:02.575686,-0.04,0.15,0.03,-0.025089107997418487,0.06763150851478027,-0.044724062082354694
2025-03-19 14:51:02.635933,0.02,0.08,0.0,-0.026179938779914945,0.055632369907319255,-0.018544123302439753
2025-03-19 14:51:02.696330,-0.11,0.21,0.0,-0.05999569303730508,0.06763150851478027,0.04799655442984406
2025-03-19 14:51:02.756834,0.0,0.04,-0.12,-0.019634954084936207,0.05345070834232634,0.0272707695624114
2025-03-19 14:51:02.816374,-0.01,0.08,0.05,0.016362461737446838,0.01090830782496456,-0.01090830782496456
2025-03-19 14:51:02.876087,0.0,0.05,-0.02,-0.016362461737446838,-0.00545415391248228,-0.03599741582238305
2025-03-19 14:51:02.936471,-0.01,0.15,0.08,-0.06326818538479445,0.02181661564992912,0.02945243112740431
2025-03-19 14:51:02.996786,-0.07,0.09,-0.21,-0.07963064712224129,0.07308566242726255,0.05235987755982989
2025-03-19 14:51:03.057299,0.01,0.04,-0.08,0.008726646259971648,0.05235987755982989,0.013089969389957472
2025-03-19 14:51:03.115896,0.0,0.1,0.04,-0.001090830782496456,0.04363323129985824,-0.011999138607461015
2025-03-19 14:51:03.174373,0.0,0.06,0.0,0.04145156973486533,-0.008726646259971648,-0.039269908169872414
2025-03-19 14:51:03.234862,-0.03,0.13,-0.02,0.02945243112740431,-0.026179938779914945,-0.05781403147231216
2025-03-19 14:51:03.296083,-0.07,0.1,-0.09,0.007635815477475192,-0.006544984694978736,-0.026179938779914945
2025-03-19 14:51:03.356695,0.0,0.05,-0.03,0.039269908169872414,0.018544123302439753,-0.019634954084936207
2025-03-19 14:51:03.416133,-0.02,0.07,0.0,0.016362461737446838,0.006544984694978736,-0.02399827721492203
2025-03-19 14:51:03.476514,-0.03,0.09,-0.05,0.015271630954950384,-0.00545415391248228,-0.006544984694978736
2025-03-19 14:51:03.536702,0.02,0.03,-0.07,0.0272707695624114,-0.006544984694978736,-0.013089969389957472
2025-03-19 14:51:03.596786,-0.05,0.12,0.04,0.04145156973486533,-0.003272492347489368,-0.01090830782496456
2025-03-19 14:51:03.657936,0.0,0.04,-0.04,0.011999138607461015,0.017453292519943295,-0.011999138607461015
2025-03-19 14:51:03.719042,0.01,0.07,-0.09,0.014180800172453928,0.013089969389957472,0.001090830782496456
2025-03-19 14:51:03.779280,-0.06,0.15,0.02,-0.003272492347489368,0.016362461737446838,0.009817477042468103
2025-03-19 14:51:03.839726,-0.02,0.06,-0.13,0.006544984694978736,0.002181661564992912,-0.004363323129985824
2025-03-19 14:51:03.900088,0.0,0.07,-0.05,0.02399827721492203,0.009817477042468103,-0.011999138607461015
2025-03-19 14:51:03.960859,-0.01,0.05,0.0,0.01090830782496456,0.003272492347489368,0.001090830782496456
2025-03-19 14:51:04.020453,0.03,0.03,-0.07,0.038179077387375956,-0.016362461737446838,0.011999138607461015
2025-03-19 14:51:04.079144,-0.03,0.07,-0.08,0.04363323129985824,-0.009817477042468103,-0.025089107997418487
2025-03-19 14:51:04.139419,-0.04,0.16,0.03,0.03490658503988659,-0.019634954084936207,-0.02181661564992912
2025-03-19 14:51:04.199839,-0.01,0.1,-0.05,0.019634954084936207,-0.022907446432425576,-0.0272707695624114
2025-03-19 14:51:04.259863,0.02,0.06,-0.06,0.018544123302439753,-0.0272707695624114,-0.0272707695624114
2025-03-19 14:51:04.319130,0.0,0.08,-0.1,0.019634954084936207,-0.017453292519943295,-0.015271630954950384
2025-03-19 14:51:04.377634,0.0,0.07,-0.05,0.026179938779914945,-0.003272492347489368,-0.008726646259971648
2025-03-19 14:51:04.437916,0.01,0.03,-0.07,0.009817477042468103,0.008726646259971648,-0.015271630954950384
2025-03-19 14:51:04.499289,-0.03,0.09,0.0,0.0,0.009817477042468103,-0.00545415391248228
2025-03-19 14:51:04.560320,0.0,0.07,-0.03,-0.006544984694978736,-0.003272492347489368,-0.014180800172453928
2025-03-19 14:51:04.620876,-0.02,0.08,-0.09,-0.008726646259971648,-0.006544984694978736,0.022907446432425576
2025-03-19 14:51:04.682403,0.0,0.1,-0.05,-0.00545415391248228,-0.01090830782496456,0.018544123302439753
2025-03-19 14:51:04.743202,-0.03,0.12,-0.17,0.002181661564992912,-0.016362461737446838,0.01090830782496456
2025-03-19 14:51:04.803781,0.01,0.01,-0.02,0.02399827721492203,-0.02181661564992912,0.003272492347489368
2025-03-19 14:51:04.863989,-0.01,0.15,-0.08,0.001090830782496456,-0.031634092692397225,-0.015271630954950384
2025-03-19 14:51:04.923077,0.0,0.14,-0.09,-0.00545415391248228,-0.017453292519943295,-0.007635815477475192
2025-03-19 14:51:04.981659,-0.04,0.07,-0.1,0.006544984694978736,-0.022907446432425576,-0.003272492347489368
2025-03-19 14:51:05.041813,0.0,0.09,-0.14,-0.015271630954950384,-0.008726646259971648,-0.028361600344907856
2025-03-19 14:51:05.103434,-0.05,0.12,-0.1,0.014180800172453928,-0.003272492347489368,-0.018544123302439753
2025-03-19 14:51:05.163771,0.0,0.09,-0.09,0.020725784867432664,-0.007635815477475192,-0.018544123302439753
2025-03-19 14:51:05.223249,0.01,0.13,-0.06,-0.017453292519943295,-0.00545415391248228,0.0
2025-03-19 14:51:05.282922,-0.07,0.17,-0.06,-0.022907446432425576,-0.011999138607461015,0.055632369907319255
2025-03-19 14:51:05.342508,0.01,0.09,-0.03,0.008726646259971648,-0.011999138607461015,0.08508480103472356
2025-03-19 14:51:05.403521,-0.01,0.01,-0.18,-0.011999138607461015,0.001090830782496456,0.025089107997418487
2025-03-19 14:51:05.463361,0.0,0.03,-0.23,0.05345070834232634,-0.015271630954950384,-0.018544123302439753
2025-03-19 14:51:05.523669,-0.03,0.18,-0.1,0.09381144729469522,-0.003272492347489368,-0.04145156973486533
2025-03-19 14:51:05.582262,-0.04,0.17,-0.08,0.04145156973486533,-0.014180800172453928,-0.032724923474893676
2025-03-19 14:51:05.643530,0.02,0.13,-0.03,-0.007635815477475192,-0.025089107997418487,0.00545415391248228
2025-03-19 14:51:05.704424,-0.04,0.15,-0.07,-0.01090830782496456,-0.009817477042468103,0.01090830782496456
2025-03-19 14:51:05.764687,-0.03,0.09,-0.13,0.003272492347489368,-0.002181661564992912,0.014180800172453928
2025-03-19 14:51:05.824903,-0.04,0.08,-0.06,0.008726646259971648,-0.00545415391248228,0.009817477042468103
2025-03-19 14:51:05.884617,-0.05,0.11,-0.11,0.01090830782496456,-0.014180800172453928,0.00545415391248228
2025-03-19 14:51:05.944777,0.05,0.0,-0.1,0.019634954084936207,-0.016362461737446838,0.017453292519943295
2025-03-19 14:51:06.004894,0.03,0.1,-0.04,0.001090830782496456,0.0,0.007635815477475192
2025-03-19 14:51:06.065002,0.01,-0.03,-0.22,0.017453292519943295,-0.00545415391248228,-0.008726646259971648
2025-03-19 14:51:06.125436,0.02,0.05,-0.01,0.006544984694978736,-0.017453292519943295,-0.019634954084936207
2025-03-19 14:51:06.184981,0.01,0.04,-0.16,-0.002181661564992912,-0.01090830782496456,0.009817477042468103
2025-03-19 14:51:06.246092,-0.01,0.05,-0.12,0.013089969389957472,-0.003272492347489368,0.003272492347489368
2025-03-19 14:51:06.306342,-0.03,0.09,-0.12,0.011999138607461015,-0.004363323129985824,-0.018544123302439753
2025-03-19 14:51:06.366657,0.03,0.03,-0.07,0.016362461737446838,-0.004363323129985824,0.004363323129985824
2025-03-19 14:51:06.427204,-0.03,0.11,-0.1,-0.014180800172453928,0.017453292519943295,0.020725784867432664
2025-03-19 14:51:06.485779,-0.02,0.05,-0.12,-0.004363323129985824,0.015271630954950384,0.028361600344907856
2025-03-19 14:51:06.546294,-0.01,0.0,-0.14,0.15162547876700738,0.00545415391248228,0.004363323129985824
2025-03-19 14:51:06.606693,0.0,0.09,-0.08,0.006544984694978736,-0.01090830782496456,-0.011999138607461015
2025-03-19 14:51:06.667777,-0.01,0.12,-0.08,0.006544984694978736,-0.013089969389957472,-0.002181661564992912
2025-03-19 14:51:06.728432,0.01,0.07,-0.13,-0.013089969389957472,0.001090830782496456,0.007635815477475192
2025-03-19 14:51:06.787715,0.0,0.0,-0.12,-0.003272492347489368,0.004363323129985824,0.014180800172453928
2025-03-19 14:51:06.848162,-0.02,0.09,-0.06,0.00545415391248228,0.013089969389957472,0.008726646259971648
2025-03-19 14:51:06.908313,-0.02,0.14,-0.08,0.15162547876700738,0.003272492347489368,0.015271630954950384
2025-03-19 14:51:06.968610,0.02,0.01,-0.13,0.002181661564992912,0.007635815477475192,0.006544984694978736
2025-03-19 14:51:07.029321,-0.02,0.05,-0.1,0.002181661564992912,0.015271630954950384,0.0
2025-03-19 14:51:07.088987,-0.01,0.04,-0.1,0.022907446432425576,0.007635815477475192,-0.028361600344907856
2025-03-19 14:51:07.147472,-0.02,0.15,-0.05,0.017453292519943295,-0.004363323129985824,-0.03599741582238305
2025-03-19 14:51:07.207942,0.0,0.05,-0.13,-0.00545415391248228,-0.008726646259971648,-0.006544984694978736
2025-03-19 14:51:07.268184,0.0,0.05,-0.12,0.002181661564992912,0.002181661564992912,0.0
2025-03-19 14:51:07.328252,-0.05,0.06,-0.13,0.009817477042468103,0.001090830782496456,-0.013089969389957472
2025-03-19 14:51:07.386924,0.0,0.11,-0.09,0.007635815477475192,-0.016362461737446838,-0.013089969389957472
2025-03-19 14:51:07.448348,-0.03,0.13,-0.14,-0.004363323129985824,0.0,-0.001090830782496456
2025-03-19 14:51:07.509670,-0.01,0.05,-0.12,0.007635815477475192,0.003272492347489368,0.01090830782496456
2025-03-19 14:51:07.569813,0.01,0.05,-0.18,0.011999138607461015,0.00545415391248228,0.018544123302439753
2025-03-19 14:51:07.630139,-0.01,0.07,-0.1,0.025089107997418487,0.0,0.011999138607461015
2025-03-19 14:51:07.689000,0.02,0.02,-0.14,0.0272707695624114,-0.011999138607461015,0.004363323129985824
2025-03-19 14:51:07.749569,0.0,0.07,-0.13,0.013089969389957472,-0.007635815477475192,0.011999138607461015
2025-03-19 14:51:07.808560,0.02,0.04,-0.11,-0.017453292519943295,-0.001090830782496456,0.032724923474893676
2025-03-19 14:51:07.869954,0.0,0.06,-0.12,-0.002181661564992912,0.017453292519943295,0.02945243112740431
2025-03-19 14:51:07.931289,-0.02,0.07,-0.11,0.009817477042468103,0.001090830782496456,0.01090830782496456
2025-03-19 14:51:07.991265,-0.03,0.08,-0.14,0.006544984694978736,0.02181661564992912,0.004363323129985824
2025-03-19 14:51:08.049820,0.0,0.06,-0.1,-0.001090830782496456,0.04254240051736178,0.013089969389957472
2025-03-19 14:51:08.108474,0.02,0.14,-0.05,-0.015271630954950384,0.02945243112740431,0.05781403147231216
2025-03-19 14:51:08.168850,0.03,0.08,-0.12,-0.04036073895236887,0.032724923474893676,0.08835729338221293
2025-03-19 14:51:08.229017,0.03,0.02,-0.17,-0.05126904677733343,0.05890486225480862,0.10362892433716332
2025-03-19 14:51:08.289913,-0.05,0.1,-0.14,-0.014180800172453928,0.055632369907319255,0.11235557059713497
2025-03-19 14:51:08.349337,-0.04,0.14,-0.13,-0.06217735460229799,0.06544984694978735,0.1341721862470641
2025-03-19 14:51:08.408001,0.0,0.21,-0.16,-0.06981317007977318,0.06763150851478027,0.16798794050445423
2025-03-19 14:51:08.468388,0.05,-0.02,-0.15,-0.07308566242726255,0.08290313946973066,0.12326387842209953
2025-03-19 14:51:08.528169,-0.04,0.19,-0.1,-0.07308566242726255,0.06872233929727672,0.15707963267948966
2025-03-19 14:51:08.588244,0.05,0.08,-0.15,-0.08399397025222712,0.0719948316447661,0.14726215563702155
2025-03-19 14:51:08.646768,-0.07,0.25,-0.05,-0.10253809355466686,0.09599310885968812,0.16798794050445423
2025-03-19 14:51:08.705306,0.01,0.13,-0.02,-0.1407171709420428,0.11780972450961724,0.20725784867432664
2025-03-19 14:51:08.764155,0.02,0.05,-0.07,-0.14835298641951802,0.11235557059713497,0.2454369260617026
2025-03-19 14:51:08.825197,0.05,0.18,0.0,-0.1908953869368798,0.1090830782496456,0.284706834231575
2025-03-19 14:51:08.886586,-0.03,-0.1,-0.23,-0.14508049407202864,0.0719948316447661,0.23452861823673804
2025-03-19 14:51:08.945761,0.07,0.01,-0.06,-0.08617563181722002,0.037088246604879506,0.13962634015954636
2025-03-19 14:51:09.004434,0.0,0.12,-0.13,-0.09053895494720585,0.037088246604879506,0.11999138607461016
2025-03-19 14:51:09.062945,0.15,0.15,0.04,-0.07853981633974483,0.02181661564992912,0.08399397025222712
2025-03-19 14:51:09.123152,0.0,0.13,-0.15,-0.008726646259971648,-0.02399827721492203,-0.018544123302439753
2025-03-19 14:51:09.183125,0.07,0.1,0.0,0.014180800172453928,-0.03599741582238305,-0.019634954084936207
2025-03-19 14:51:09.244318,0.06,-0.08,-0.1,0.02181661564992912,-0.04799655442984406,-0.00545415391248228
2025-03-19 14:51:09.303938,0.05,-0.01,-0.17,0.02399827721492203,-0.050178215994836975,-0.08399397025222712
2025-03-19 14:51:09.362640,0.02,0.07,-0.03,0.03599741582238305,-0.04254240051736178,-0.08835729338221293
2025-03-19 14:51:09.422427,0.03,-0.04,-0.11,0.09490227807719166,-0.05890486225480862,-0.13744467859455345
2025-03-19 14:51:09.482996,-0.01,0.29,0.02,0.05126904677733343,-0.039269908169872414,-0.08944812416470939
2025-03-19 14:51:09.543786,0.07,-0.02,-0.14,0.07090400086226964,-0.039269908169872414,-0.018544123302439753
2025-03-19 14:51:09.603476,0.03,0.09,0.03,0.001090830782496456,-0.016362461737446838,-0.006544984694978736
2025-03-19 14:51:09.662005,0.02,-0.01,-0.11,0.013089969389957472,-0.0272707695624114,-0.006544984694978736
2025-03-19 14:51:09.722359,0.05,0.1,-0.12,0.020725784867432664,-0.011999138607461015,-0.003272492347489368
2025-03-19 14:51:09.782611,0.09,0.05,-0.05,-0.007635815477475192,0.013089969389957472,0.026179938779914945
2025-03-19 14:51:09.842573,0.0,-0.03,-0.08,-0.01090830782496456,-0.009817477042468103,-0.002181661564992912
2025-03-19 14:51:09.901449,0.04,0.09,-0.01,0.020725784867432664,-0.04799655442984406,-0.032724923474893676
2025-03-19 14:51:09.961106,0.03,-0.04,-0.2,0.06763150851478027,-0.07417649320975901,-0.11671889372712078
2025-03-19 14:51:10.020747,0.09,-0.01,-0.03,0.16689710972195776,-0.1439896632895322,-0.24434609527920614
2025-03-19 14:51:10.082241,0.22,-0.18,0.05,0.272707695624114,-0.22143864884678055,-0.4363323129985824
2025-03-19 14:51:10.142759,0.61,-0.22,0.08,0.29888763440402893,-0.25743606466916363,-0.6348635154129374
2025-03-19 14:51:10.202157,1.37,-0.9500000000000001,-0.18,0.16907877128695067,-0.23671027980173096,-0.6828600698427815
2025-03-19 14:51:10.261843,0.52,-0.64,-0.74,-0.1407171709420428,-0.22907446432425577,-0.8006697943523987
2025-03-19 14:51:10.321667,-0.86,-0.13,-0.61,0.5170537909033202,-0.07853981633974483,-0.6872233929727672
2025-03-19 14:51:10.382254,-1.69,-2.7800000000000002,0.08,2.1980240267303586,0.006544984694978736,0.07635815477475191
2025-03-19 14:51:10.442345,-0.65,-2.85,0.3,1.9984019935335073,0.2923426497090502,0.6981317007977318
2025-03-19 14:51:10.502630,0.43,0.67,-0.59,2.3431045208023873,0.21489366415180183,1.1399181677087964
2025-03-19 14:51:10.561048,-0.06,3.95,0.63,3.655373952145624,0.19634954084936207,1.1071932442339028
2025-03-19 14:51:10.619795,-0.49,3.65,-3.61,2.3747386134947845,0.13744467859455345,0.5225079448158024
2025-03-19 14:51:10.680523,-0.99,-4.96,1.54,-0.43196898986859655,-0.039269908169872414,0.003272492347489368
2025-03-19 14:51:10.741796,0.64,0.37,-0.05,-0.41996985126113556,0.04036073895236887,-0.08617563181722002
2025-03-19 14:51:10.802473,0.35000000000000003,0.72,0.45,0.020725784867432664,-0.14508049407202864,0.17562375598192942
2025-03-19 14:51:10.861047,-0.06,0.17,-0.77,-0.2530727415391778,0.1090830782496456,0.3621558197888234
2025-03-19 14:51:10.919466,0.19,-0.09,-0.11,-0.16035212502697901,0.09490227807719166,0.47123889803846897
2025-03-19 14:51:10.979718,0.03,-0.33,-0.67,-0.025089107997418487,0.008726646259971648,0.3534291735288517
2025-03-19 14:51:11.039766,0.02,-0.54,-0.51,0.19525871006686563,-0.12544553998709243,-0.008726646259971648
2025-03-19 14:51:11.100801,0.01,0.26,-0.29,0.29561514205653955,-0.0916297857297023,-0.1810779098944117
2025-03-19 14:51:11.160255,0.02,0.29,-0.18,0.35561083509384467,-0.06435901616729091,-0.13744467859455345
2025-03-19 14:51:11.218827,0.03,-0.09,-0.41000000000000003,0.23889194136672387,0.04254240051736178,-0.11344640137963143
2025-03-19 14:51:11.278726,-0.04,-0.06,-0.32,0.24216443371421323,-0.009817477042468103,-0.13526301702956053
2025-03-19 14:51:11.339111,0.18,0.56,0.52,0.11017390903214205,-0.018544123302439753,-0.1265363707695889
2025-03-19 14:51:11.400194,0.08,0.21,-0.06,0.21380283336930536,-0.07308566242726255,-0.08835729338221293
2025-03-19 14:51:11.460282,-0.1,-0.68,-0.5,-0.011999138607461015,0.04036073895236887,-0.18544123302439752
2025-03-19 14:51:11.519339,0.14,0.11,-0.21,-0.21598449493429828,0.15926129424448257,-0.17562375598192942
2025-03-19 14:51:11.577978,0.07,0.08,-0.16,-0.04581489286485115,0.13744467859455345,-0.21598449493429828
2025-03-19 14:51:11.638155,0.02,-0.24,-0.74,-0.26616271092913524,0.3294308963139297,-0.37306412761378793
2025-03-19 14:51:11.698492,-0.04,0.03,-0.34,-0.2519819107566813,0.36979163526629855,-0.45160394395353276
2025-03-19 14:51:11.759022,0.06,0.45,0.45,-0.061086523819801536,0.35015668118136234,-0.48105637508093707
2025-03-19 14:51:11.818179,0.3,0.03,-0.24,0.25416357232167425,0.3752457891787809,-0.5519603759432067
2025-03-19 14:51:11.878360,0.55,0.0,-0.07,0.26070855701665296,0.43196898986859655,-0.5825036378531074
2025-03-19 14:51:11.939245,1.09,-0.36,-0.15,0.1712604328519436,0.4308781590861001,-0.7744898555724837
2025-03-19 14:51:11.999487,1.6500000000000001,-0.99,0.27,0.5552328682906961,0.3687008044838021,-1.1704614296186973
2025-03-19 14:51:12.060327,2.16,-1.29,-0.19,1.559888018969932,0.48432886742842646,-1.4486232791552935
2025-03-19 14:51:12.118778,3.54,6.0200000000000005,-1.75,2.7848909877134522,0.5541420375081997,-1.7169676516494217
2025-03-19 14:51:12.178789,2.64,-1.22,-2.22,3.497203488683638,0.20289452554434081,-2.1740257495154367
2025-03-19 14:51:12.239456,1.53,-4.16,-0.11,2.841614188403268,0.43960480534607177,-2.0104011321409683
2025-03-19 14:51:12.300757,0.35000000000000003,-4.0,1.16,3.0281462522101616,0.5094179754258449,-1.351539339513109
2025-03-19 14:51:12.361213,-0.12,-4.39,0.8,2.31147042810999,0.7821256710499589,-0.8170322560898455
2025-03-19 14:51:12.419967,-1.01,-4.75,1.09,2.193660703600373,1.0821041362364843,-0.33815754257390135
2025-03-19 14:51:12.478727,-1.77,-6.11,1.6600000000000001,2.061670178918302,1.6493361431346414,0.30870511144649704
2025-03-19 14:51:12.539229,-1.24,-6.32,-0.49,2.320197074369962,2.2165681500327987,1.0210176124166828
2025-03-19 14:51:12.600359,-0.35000000000000003,-6.55,-2.14,2.0398535632683727,2.531818246174274,1.6744252511320599
2025-03-19 14:51:12.661094,0.92,-4.37,-4.0,2.2405664272477206,2.5339999077392674,2.4238259987071253
2025-03-19 14:51:12.719605,1.87,-2.24,-6.0200000000000005,1.8751381151114077,2.2078415037728267,3.047781206295098
2025-03-19 14:51:12.778296,4.63,5.28,-8.99,2.0376719017033795,1.32972272386318,3.0466903755126014
2025-03-19 14:51:12.838368,3.24,10.31,-6.63,1.1464631524037752,0.45487643630102215,1.5795229730548683
2025-03-19 14:51:12.899287,6.65,-11.02,5.6000000000000005,-1.475894048717705,-0.5999569303730508,-0.4854196982109229
2025-03-19 14:51:12.959999,-0.17,1.11,1.22,-0.18216874067690814,-0.4723297288209654,-0.44178646691106466
2025-03-19 14:51:13.020252,-0.42,-0.96,-2.22,0.08726646259971647,-0.2879793265790644,-0.36979163526629855
2025-03-19 14:51:13.079056,0.73,-0.97,-0.16,0.08835729338221293,-0.20725784867432664,-0.5530512067257032
2025-03-19 14:51:13.138298,0.62,-0.23,0.1,0.28688849579656794,-0.039269908169872414,-0.868301302867179
2025-03-19 14:51:13.198834,0.54,0.11,1.29,0.3108867730114899,0.05126904677733343,-0.8988445647770797
2025-03-19 14:51:13.259315,0.03,-1.44,-1.53,0.3937899124812206,0.11126473981463851,-0.8824821030396329
2025-03-19 14:51:13.319285,-1.09,-0.2,-0.16,0.2683443724941282,0.1407171709420428,-0.9992009967667537
2025-03-19 14:51:13.378718,0.25,-0.62,-0.46,0.5105088062083414,0.2083486794568231,-1.0591966898040588
2025-03-19 14:51:13.438553,0.96,-2.67,-2.07,0.3981532356112064,0.0818123086872342,-1.4769848795002014
2025-03-19 14:51:13.498773,10.4,-10.68,-4.15,0.33488505022641196,-0.4243331743911214,-3.0946869299424455
2025-03-19 14:51:13.559088,6.18,2.7800000000000002,-1.85,0.32288591161895097,-0.31852258848896514,-2.8950648967455943
2025-03-19 14:51:13.619443,0.12,-14.040000000000001,1.67,2.5078199689593523,-0.5039638215133626,-0.3817907738737596
2025-03-19 14:51:13.678273,-3.2800000000000002,-5.34,9.870000000000001,0.7504915783575618,0.7286749627076325,1.0799224746714915
2025-03-19 14:51:13.737071,-2.36,-5.03,5.03,0.9675669040743564,1.7747816831217338,2.294017135590047
2025-03-19 14:51:13.797699,-0.02,0.2,1.6300000000000001,2.251474735072685,2.2754730122876072,3.325943055831694
2025-03-19 14:51:13.858147,3.17,2.2,-4.88,0.4308781590861001,2.3452861823673805,3.2735831782718643
2025-03-19 14:51:13.919311,5.05,7.13,-6.48,0.10471975511965978,1.4158983556804,2.398736890709707
2025-03-19 14:51:13.979044,2.77,7.73,-9.97,0.45160394395353276,0.6719517620178169,1.263182046130896
2025-03-19 14:51:14.037689,3.36,5.22,-7.11,-0.8203047484373349,-0.6664976081053346,-0.7668540400950086
2025-03-19 14:51:14.098415,0.36,2.91,2.21,0.19744037163185854,-0.868301302867179,-0.842121364087264
2025-03-19 14:51:14.158968,-0.3,-1.35,-1.23,-0.10471975511965978,-0.5606870222031783,0.05672320068981571
2025-03-19 14:51:14.219805,0.42,-1.84,-0.9,-0.6948592084502424,-0.4232423436086249,0.05999569303730508
2025-03-19 14:51:14.280520,0.52,-0.97,-0.14,-0.6763150851478027,-0.26616271092913524,-0.15271630954950383
2025-03-19 14:51:14.339103,0.3,-0.34,0.12,-0.45814892864851153,-0.2879793265790644,-0.5061454830783556
2025-03-19 14:51:14.399111,0.49,-0.87,0.22,-0.06981317007977318,-0.42215151282612845,-0.8028514559173916
2025-03-19 14:51:14.459683,1.7,-0.89,0.71,0.4363323129985824,-0.605411084285533,-1.325359400733194
2025-03-19 14:51:14.520255,3.61,-1.26,3.64,1.0722866591940161,-0.7374016089676042,-1.997311162751011
2025-03-19 14:51:14.579795,5.92,-6.4,1.95,0.38288160465625604,-0.7744898555724837,-2.3300145514124297
2025-03-19 14:51:14.638790,-9.48,-3.2,-2.5100000000000002,0.928296995904484,-0.19198621771937624,-1.3624476473380736
2025-03-19 14:51:14.697953,-8.69,3.5500000000000003,6.99,0.9173886880795195,1.3308135546456763,1.4955290028026411
2025-03-19 14:51:14.758809,-0.27,24.09,-12.700000000000001,4.25969420564866,1.6929693744344996,0.6883142237552637
2025-03-19 14:51:14.819693,-1.6300000000000001,-3.17,-10.14,1.8511398378964858,1.117010721276371,0.892299580082101
2025-03-19 14:51:14.879109,2.93,1.22,5.0200000000000005,-1.076649982324002,0.7221299780126539,1.7693275292092516
2025-03-19 14:51:14.937657,6.74,-2.57,1.59,0.13199052468207118,0.6392268385429232,1.3046336158657614
2025-03-19 14:51:14.996449,-0.05,-0.26,-0.48,-0.08072147790473774,0.3327033886614191,0.6599526234103559
2025-03-19 14:51:15.057141,0.0,-0.11,-0.11,-0.23889194136672387,0.4788747135159442,0.8246680715673207
2025-03-19 14:51:15.117519,0.06,-0.79,0.05,-0.10035643198967395,0.4276056667386107,0.6446809924554054
2025-03-19 14:51:15.178814,-0.09,-0.98,-0.29,0.10362892433716332,0.37088246604879505,0.20943951023931956
2025-03-19 14:51:15.238335,-0.03,-0.55,-0.3,0.35561083509384467,0.3959715740462135,0.07090400086226964
2025-03-19 14:51:15.297261,0.0,-0.34,-0.08,0.2716168648416175,0.5650503453331642,0.05890486225480862
2025-03-19 14:51:15.357281,-0.14,-0.53,-0.08,0.41233403578366035,0.6272276999354622,0.00545415391248228
2025-03-19 14:51:15.417698,0.92,-0.24,-1.19,0.9501136115544131,0.6468626540203984,-0.42542400517361784
2025-03-19 14:51:15.478136,4.5200000000000005,-0.08,-2.04,2.8361600344907854,0.7079491778402,-1.0875582901489667
2025-03-19 14:51:15.536754,2.48,-1.31,-5.65,7.299839596466283,-0.22689280275926285,-0.2007128639793479
2025-03-19 14:51:15.596027,0.18,-6.0600000000000005,-4.21,4.334961529640916,-0.40033489717619936,-0.1930770485018727
2025-03-19 14:51:15.657046,-0.63,-2.37,0.34,2.399827721492203,-0.3327033886614191,-0.06544984694978735
2025-03-19 14:51:15.717676,-1.24,-4.32,2.29,4.554218516922703,-0.05781403147231216,0.6784967467127956
2025-03-19 14:51:15.778421,-0.72,-4.5,1.76,4.082979618884234,0.5759586531581288,1.4420782944603148
2025-03-19 14:51:15.836919,1.03,-2.04,0.8,3.414300349213907,0.9370236421644557,2.0104011321409683
2025-03-19 14:51:15.895535,1.87,1.3900000000000001,-0.53,3.408846195301425,0.9272061651219876,2.0780326406557488
2025-03-19 14:51:15.955260,1.31,4.53,-1.09,3.677190567795553,0.8104872713948668,1.5522522034924569
2025-03-19 14:51:16.016765,1.23,8.700000000000001,-5.55,3.5386550584185033,0.3534291735288517,0.32834006553143325
2025-03-19 14:51:16.077836,0.49,6.7,-6.03,1.9547687622336491,-0.24652775684419906,-0.7766715171374766
2025-03-19 14:51:16.137230,3.52,-10.66,-8.26,0.30870511144649704,-0.8584838258247108,-0.01090830782496456
2025-03-19 14:51:16.195884,-0.09,2.81,3.7600000000000002,-0.33161255787892263,-0.605411084285533,-0.23889194136672387
2025-03-19 14:51:16.254549,-0.62,0.2,-0.93,-0.2519819107566813,-0.4559672670835186,0.2596177262341565
2025-03-19 14:51:16.314959,0.2,-0.55,-0.51,0.01090830782496456,-0.3785182815262702,0.346884188833873
2025-03-19 14:51:16.375006,0.03,-0.3,-0.27,0.11671889372712078,-0.358883327441334,0.20398535632683726
2025-03-19 14:51:16.436648,-0.03,-0.09,-0.32,0.07090400086226964,-0.3174317577064687,0.17235126363444003
2025-03-19 14:51:16.496340,0.09,-0.47000000000000003,-0.52,0.10144726277217041,-0.30870511144649704,0.09381144729469522
2025-03-19 14:51:16.555052,0.04,-0.03,0.07,0.19744037163185854,-0.25089107997418486,0.011999138607461015
2025-03-19 14:51:16.615351,0.11,-0.03,-0.11,0.20289452554434081,-0.2279836335417593,0.030543261909900768
2025-03-19 14:51:16.675450,-0.08,-0.06,-0.19,0.08835729338221293,-0.1538071403320003,0.08072147790473774
2025-03-19 14:51:16.736311,-0.07,-0.05,0.05,0.06435901616729091,-0.1308996938995747,0.08290313946973066
2025-03-19 14:51:16.796107,0.02,-0.15,-0.29,0.06435901616729091,-0.04799655442984406,0.008726646259971648
2025-03-19 14:51:16.854910,0.0,-0.14,-0.27,0.11017390903214205,-0.00545415391248228,0.004363323129985824
2025-03-19 14:51:16.914954,0.02,0.01,-0.05,0.17235126363444003,0.04908738521234052,0.022907446432425576
2025-03-19 14:51:16.975318,0.0,0.01,-0.23,0.23125612588924865,0.07635815477475191,0.06217735460229799
2025-03-19 14:51:17.035931,-0.02,-0.08,-0.26,0.29343348049154666,0.12544553998709243,0.10362892433716332
2025-03-19 14:51:17.094407,-0.04,-0.08,-0.13,0.421060682043632,0.1832595714594046,0.16689710972195776
2025-03-19 14:51:17.154085,-0.09,0.04,-0.31,0.2781618495365963,0.2596177262341565,0.3392483733563978
2025-03-19 14:51:17.215465,0.18,-0.09,-0.06,0.30325095753401476,0.2999784651865254,0.49960049838337683
2025-03-19 14:51:17.275905,0.28,-0.15,-0.25,0.32834006553143325,0.3785182815262702,0.4461497900410505
2025-03-19 14:51:17.336077,1.49,0.31,-0.8200000000000001,0.5028729907308662,0.6043202535030366,-0.002181661564992912
2025-03-19 14:51:17.394847,3.7800000000000002,12.52,1.6400000000000001,2.748893571891069,1.0330167510241437,-0.7984881327874057
2025-03-19 14:51:17.453599,2.23,6.42,-3.47,4.691663195517257,0.10799224746714914,-1.4649857408927405
2025-03-19 14:51:17.512517,2.34,-0.05,-2.73,5.71268080793394,-0.11235557059713497,-2.0158552860534504
2025-03-19 14:51:17.574074,-1.27,-8.26,2.36,7.140578302221801,0.3490658503988659,-1.299179461953279
2025-03-19 14:51:17.635964,-1.32,-11.02,1.25,6.037748381117884,1.054833366674073,0.13853550937704992
2025-03-19 14:51:17.695471,0.52,-8.76,-1.24,5.820673055401089,1.373355955163038,1.3591751549905842
2025-03-19 14:51:17.754249,1.19,-7.41,-3.11,4.867286951499186,1.3046336158657614,2.322378735934955
2025-03-19 14:51:17.813280,2.68,-3.9,-5.99,2.5394540616517496,0.9632035809443706,2.8503408346632395
2025-03-19 14:51:17.873481,3.19,7.32,-4.42,2.1238475335205997,0.6741334235828098,2.781618495365963
2025-03-19 14:51:17.933921,1.36,15.3,-7.7700000000000005,0.16471544815696484,0.05345070834232634,1.074468320759009
2025-03-19 14:51:17.995206,0.53,15.25,3.0,-0.16253378659197193,-0.27707101875409984,-1.5882496193148399
2025-03-19 14:51:18.054993,-1.1400000000000001,-6.19,1.55,0.2476185876266955,-0.9479319499894202,-1.5249814339300454
2025-03-19 14:51:18.113856,0.16,0.31,0.67,-0.38942658935123475,-0.3959715740462135,-0.8955720724295904
2025-03-19 14:51:18.174289,0.1,-1.22,-1.43,-0.3294308963139297,-0.04799655442984406,-0.7810348402674625
2025-03-19 14:51:18.234865,0.22,-0.37,-0.2,-0.22689280275926285,0.03381575425739013,-0.7363107781851078
2025-03-19 14:51:18.295354,0.13,-0.63,-0.75,-0.06763150851478027,-0.015271630954950384,-0.7908523173099306
2025-03-19 14:51:18.353938,0.75,-0.09,0.55,-0.08399397025222712,0.050178215994836975,-0.7777623479199731
2025-03-19 14:51:18.413412,1.45,-0.67,0.86,0.11453723216212788,0.10471975511965978,-1.0570150282390658
2025-03-19 14:51:18.474363,2.94,-2.02,1.11,0.6403176693254197,0.07090400086226964,-1.7027868514769677
2025-03-19 14:51:18.534939,9.02,-8.8,-1.92,0.8737554567796613,0.08944812416470939,-2.8056167725808847
2025-03-19 14:51:18.596051,3.6,-10.82,-3.41,1.1115565673638885,0.12108221685710661,-2.825251726665821
2025-03-19 14:51:18.654636,0.88,-15.51,0.73,2.7281677870236365,0.19525871006686563,-0.9173886880795195
2025-03-19 14:51:18.713159,-2.2,-12.51,1.52,1.1159198904938745,0.7657632093125121,1.1366456753613072
2025-03-19 14:51:18.773323,-0.86,-8.790000000000001,1.02,0.8257589023498172,1.3602659857730806,3.1732267462821904
2025-03-19 14:51:18.834527,4.01,-5.15,-2.6,1.1301006906663285,1.7038776822594641,4.648029964217399
2025-03-19 14:51:18.896023,9.24,3.47,-6.32,0.4286964975211072,1.3526301702956054,5.101815569735924
2025-03-19 14:51:18.954460,6.87,20.54,-2.7,0.6566801310628665,0.8017606251348951,3.8539051545599787
2025-03-19 14:51:19.013148,2.62,26.64,-6.72,0.5563236990731926,-0.36979163526629855,-0.009817477042468103
2025-03-19 14:51:19.072234,4.83,-5.19,4.32,1.0897399517139594,-1.1650072757062149,-2.2067506729903306
2025-03-19 14:51:19.132828,-2.15,-326.7,-3.59,-0.20180369476184434,-0.9359328113819593,-1.3897184169004848
2025-03-19 14:51:19.193308,0.35000000000000003,0.38,-0.8,-0.35997415822383044,-0.28361600344907856,-0.4341506514335895
2025-03-19 14:51:19.254020,0.21,-0.6900000000000001,-0.76,-0.5083271446433485,0.026179938779914945,-0.4374231437810788
2025-03-19 14:51:19.313766,0.28,-0.9500000000000001,-0.5,-0.39924406639370286,-0.016362461737446838,-0.6730425928003133
2025-03-19 14:51:19.372476,0.43,-0.93,-0.9500000000000001,-0.3010692959690218,-0.09381144729469522,-1.1344640137963142
2025-03-19 14:51:19.432694,1.4000000000000001,0.18,1.11,-0.12762720155208535,-0.002181661564992912,-1.4148075248979033
2025-03-19 14:51:19.493037,1.35,-0.35000000000000003,2.25,0.39706240482870997,0.022907446432425576,-1.8816830998063865
2025-03-19 14:51:19.553581,5.73,-4.43,2.13,0.8704829644321719,-0.17453292519943295,-2.973604713085339
2025-03-19 14:51:19.612154,9.06,-19.77,1.1400000000000001,1.8391406992890247,-0.3392483733563978,-4.056799680104319
2025-03-19 14:51:19.670995,3.74,-3.0100000000000002,-2.17,1.6689710972195777,-0.2617993877991494,-2.949606435870417
2025-03-19 14:51:19.731421,-3.13,-9.75,0.06,0.33815754257390135,1.2075496762235767,-0.04799655442984406
2025-03-19 14:51:19.791842,-2.2800000000000002,-12.83,-1.44,1.595885434792315,2.1183933796081176,2.5274549230442886
2025-03-19 14:51:19.852301,1.6500000000000001,-8.94,-5.09,0.4068798818711781,2.306016274197508,4.509494454840349
2025-03-19 14:51:19.911581,8.870000000000001,1.87,-7.57,-0.007635815477475192,1.7453292519943295,5.571963636991897
2025-03-19 14:51:19.971226,8.01,20.85,-4.25,0.7352199474026113,0.2748893571891069,4.944735937056435
2025-03-19 14:51:20.031616,4.08,19.86,-12.22,3.12413936106985,-0.09817477042468103,1.8282323914640601
2025-03-19 14:51:20.091848,8.5,-17.7,21.78,0.770126532442498,-0.16144295580947549,-2.2187498115977915
2025-03-19 14:51:20.152273,-3.67,-4.04,0.39,1.5293447570600314,-2.3769202750597778,-1.6711527587845705
2025-03-19 14:51:20.210918,0.31,0.15,-1.1300000000000001,-0.19853120241435498,-0.6435901616729091,-1.2686362000433782
2025-03-19 14:51:20.269627,-0.13,-0.29,-0.98,0.09599310885968812,-0.22143864884678055,-0.8137597637423561
2025-03-19 14:51:20.328568,0.52,0.19,0.36,-0.11999138607461016,-0.10144726277217041,-0.5879577917655898
2025-03-19 14:51:20.389184,0.62,-0.25,0.18,0.12871803233458182,-0.0916297857297023,-0.7461282552275759
2025-03-19 14:51:20.449265,0.87,-0.16,0.46,0.23343778745424157,-0.08835729338221293,-1.0875582901489667
2025-03-19 14:51:20.509718,2.7,-1.51,1.05,1.030835089459151,-0.15489797111449674,-1.9002272231088262
2025-03-19 14:51:20.568102,8.38,-5.18,3.25,0.5792311455056182,-0.284706834231575,-3.091414437594956
2025-03-19 14:51:20.626983,3.56,-9.63,2.89,1.2457287536109527,-0.421060682043632,-3.3292155481791834
2025-03-19 14:51:20.687643,-3.46,-13.530000000000001,1.47,1.4944381720201447,1.0177451200691934,0.04254240051736178
2025-03-19 14:51:20.748920,-2.13,-8.23,0.56,-0.7341291166201148,1.7813266678167126,2.179479903427919
2025-03-19 14:51:20.809680,1.75,-0.74,-0.48,0.8410305333047675,1.6667894356545847,3.2386765932319777
2025-03-19 14:51:20.868260,0.9500000000000001,2.12,-0.33,2.3856469213197493,1.2828170002158321,3.385938748868999
2025-03-19 14:51:20.928710,4.12,3.5500000000000003,-6.140000000000001,2.3289237206299336,1.5140731261050808,3.286673147661822
2025-03-19 14:51:20.989068,3.97,11.98,-9.22,2.4249168294896215,0.7952156404399164,2.222022303945281
2025-03-19 14:51:21.049408,2.11,13.280000000000001,-12.74,0.037088246604879506,-0.7504915783575618,-0.4919646829059016
2025-03-19 14:51:21.109963,6.15,4.2700000000000005,5.99,-0.385063266221249,-0.5835944686356039,-0.4821472058634335
2025-03-19 14:51:21.168436,-0.32,-0.8200000000000001,-1.79,0.20289452554434081,-0.8453938564347534,-0.2530727415391778
2025-03-19 14:51:21.227493,-0.47000000000000003,0.15,-0.55,0.23452861823673804,-0.39924406639370286,0.04363323129985824
2025-03-19 14:51:21.288626,0.04,-0.8300000000000001,-0.74,0.04254240051736178,-0.31525009614147576,0.10035643198967395
2025-03-19 14:51:21.349028,-0.06,-0.35000000000000003,-0.33,0.008726646259971648,-0.18653206380689397,0.026179938779914945
2025-03-19 14:51:21.409021,0.13,-0.53,-0.23,-0.038179077387375956,-0.17671458676442586,0.06435901616729091
2025-03-19 14:51:21.467778,0.02,-0.86,-0.5,0.04799655442984406,-0.23234695667174513,-0.09381144729469522
2025-03-19 14:51:21.526374,0.06,-0.45,-0.46,0.0545415391248228,-0.18544123302439752,-0.28688849579656794
2025-03-19 14:51:21.585133,0.0,-0.31,-0.41000000000000003,0.1832595714594046,-0.06654067773228381,-0.25634523388666713
2025-03-19 14:51:21.646486,-0.17,0.09,-0.13,-0.018544123302439753,0.022907446432425576,-0.08508480103472356
2025-03-19 14:51:21.708012,-0.07,-0.36,-0.48,-0.05126904677733343,0.08072147790473774,-0.028361600344907856
2025-03-19 14:51:21.767898,-0.09,0.02,-0.01,0.07744898555724837,0.10362892433716332,0.026179938779914945
2025-03-19 14:51:21.826584,0.16,-0.8300000000000001,-0.39,0.17235126363444003,0.08072147790473774,0.0
2025-03-19 14:51:21.885217,0.1,-0.21,-0.04,0.03599741582238305,0.0916297857297023,0.002181661564992912
2025-03-19 14:51:21.944711,-0.06,-0.35000000000000003,-0.35000000000000003,0.05999569303730508,0.0719948316447661,0.006544984694978736
2025-03-19 14:51:22.004833,-0.01,-0.25,-0.19,0.0272707695624114,0.07417649320975901,-0.03381575425739013
2025-03-19 14:51:22.065883,0.05,-0.14,-0.12,-0.0818123086872342,0.06981317007977318,-0.04254240051736178
2025-03-19 14:51:22.125434,-0.03,-0.28,-0.21,-0.08726646259971647,0.07308566242726255,-0.06435901616729091
2025-03-19 14:51:22.183934,0.04,-0.18,-0.1,-0.04799655442984406,0.07744898555724837,-0.10144726277217041
2025-03-19 14:51:22.242785,0.04,-0.34,-0.21,0.015271630954950384,0.09490227807719166,-0.16144295580947549
2025-03-19 14:51:22.303195,0.18,-0.47000000000000003,-0.23,-0.0272707695624114,0.032724923474893676,-0.37742745074377376
2025-03-19 14:51:22.364399,0.25,-0.29,0.0,0.10362892433716332,0.0,-0.5541420375081997
2025-03-19 14:51:22.424383,0.35000000000000003,-0.27,-0.27,0.13526301702956053,-0.001090830782496456,-0.6544984694978736
2025-03-19 14:51:22.483018,0.54,-0.39,-0.07,0.09817477042468103,-0.030543261909900768,-0.6588617926278594
2025-03-19 14:51:22.541979,1.23,-0.35000000000000003,0.72,0.2694352032766246,-0.1559888018969932,-0.8366672101747817
2025-03-19 14:51:22.602330,1.5,-0.9500000000000001,0.38,0.35561083509384467,-0.30652344988150415,-1.1573714602287397
2025-03-19 14:51:22.663895,0.38,-1.11,0.0,0.5672320068981571,-0.3687008044838021,-1.1704614296186973
2025-03-19 14:51:22.724633,-1.32,-4.17,0.37,0.533416252640767,-0.11780972450961724,-0.45814892864851153
2025-03-19 14:51:22.783216,-1.7,-2.91,0.56,-0.543233729683235,0.14180800172453928,0.18871372537188688
2025-03-19 14:51:22.841957,-0.75,-0.55,0.5,0.08835729338221293,0.18653206380689397,0.7483099167925688
2025-03-19 14:51:22.902137,0.03,-0.35000000000000003,0.0,0.45487643630102215,0.23125612588924865,0.8552113334772214
2025-03-19 14:51:22.962509,0.3,-0.76,-1.09,-0.16798794050445423,0.2617993877991494,0.8519388411297321
2025-03-19 14:51:23.023135,0.58,-0.28,-0.9,-0.06981317007977318,0.0545415391248228,0.8093964406123704
2025-03-19 14:51:23.082423,0.66,-0.53,-0.4,-0.3392483733563978,-0.04036073895236887,0.7646723785300157
2025-03-19 14:51:23.142233,0.16,-0.15,0.38,-0.4636030825609938,-0.04254240051736178,0.6970408700152354
2025-03-19 14:51:23.203776,-0.15,-0.84,0.32,0.12326387842209953,0.019634954084936207,0.7810348402674625
2025-03-19 14:51:23.264335,-0.42,-1.45,-0.48,-0.3174317577064687,0.002181661564992912,0.8693921336496754
2025-03-19 14:51:23.324771,-0.19,-0.43,-1.02,-1.53588974175501,-0.06763150851478027,0.878118779909647
2025-03-19 14:51:23.383229,0.14,4.94,-0.9500000000000001,-2.0518527018758337,-0.2181661564992912,0.6130468997630083
2025-03-19 14:51:23.442104,-1.28,5.72,0.19,-0.7941248096574199,-0.3392483733563978,-0.06217735460229799
2025-03-19 14:51:23.502666,9.540000000000001,-1.37,0.05,0.3327033886614191,-0.46687557490848314,-0.43960480534607177
2025-03-19 14:51:23.563029,-0.97,0.5,-1.1500000000000001,0.5028729907308662,-0.48323803664593,-0.7035858547102141
2025-03-19 14:51:23.623941,0.37,0.15,0.35000000000000003,0.2585268954516601,-0.27052603405912107,-0.35452000431134817
2025-03-19 14:51:23.683773,0.41000000000000003,0.06,0.0,0.003272492347489368,-0.30652344988150415,-0.27052603405912107
2025-03-19 14:51:23.742362,0.27,-0.15,-0.41000000000000003,-0.09708393964218458,-0.05999569303730508,-0.06763150851478027
2025-03-19 14:51:23.802549,0.13,-0.33,-0.2,-0.11671889372712078,-0.06763150851478027,-0.21598449493429828
2025-03-19 14:51:23.863021,0.45,-0.41000000000000003,-0.21,-0.20289452554434081,-0.12980886311707826,-0.5159629601208237
2025-03-19 14:51:23.923241,1.02,-0.11,-0.06,-0.03599741582238305,-0.2748893571891069,-0.7744898555724837
2025-03-19 14:51:23.982286,0.5,-2.27,3.0700000000000003,0.07090400086226964,-0.5181446216858165,-1.0057459814617324
2025-03-19 14:51:24.041874,3.44,-2.43,0.38,-0.22689280275926285,-0.8672104720846825,-1.8740472843289113
2025-03-19 14:51:24.101951,10.450000000000001,-12.06,1.37,-1.8696839611989255,-1.4486232791552935,-3.0728703142925164
2025-03-19 14:51:24.162488,4.17,-4.7700000000000005,-1.77,-1.983130362578557,-1.241365430480967,-1.9384063004962022
2025-03-19 14:51:24.222865,-2.06,-9.69,5.99,-1.9624045777111243,-0.8017606251348951,1.0679233360640303
2025-03-19 14:51:24.282525,-1.95,-7.55,6.390000000000001,-1.0450158896316049,-0.12435470920459599,3.153591792197254
2025-03-19 14:51:24.341530,1.3900000000000001,-2.5500000000000003,6.640000000000001,-1.8871372537188689,0.693768377667746,4.212788482001313
2025-03-19 14:51:24.401475,5.25,3.14,3.87,-2.7903451416259344,0.8486663487822428,4.444044607890562
2025-03-19 14:51:24.461662,6.59,12.24,4.29,-1.2577278922184136,0.6010477611555473,3.667373090753085
2025-03-19 14:51:24.521990,4.15,14.52,-2.08,-1.2675453692608818,0.47669305195095124,1.4671674024577332
2025-03-19 14:51:24.582526,2.63,13.8,-2.79,-0.892299580082101,-0.1559888018969932,-0.9686577348568529
2025-03-19 14:51:24.641318,13.63,-24.82,0.74,-0.07308566242726255,-0.5726861608106394,-1.0090184738092218
2025-03-19 14:51:24.699942,-1.43,5.8100000000000005,-0.56,0.4385139745635753,-0.557414529855689,-1.1780972450961724
2025-03-19 14:51:24.760983,0.46,1.46,0.29,-0.3141592653589793,-0.17671458676442586,-0.8115781021773633
2025-03-19 14:51:24.821988,-0.07,-0.29,-0.53,-0.35124751196385884,0.037088246604879506,-0.433059820651093
2025-03-19 14:51:24.882710,0.06,-0.07,0.1,-0.19744037163185854,-0.05235987755982989,-0.48323803664593
2025-03-19 14:51:24.941317,0.26,-0.3,-0.05,-0.284706834231575,-0.07853981633974483,-0.6446809924554054
2025-03-19 14:51:24.999920,0.68,-0.11,0.16,-0.18216874067690814,-0.210530341021816,-0.8977537339945832
2025-03-19 14:51:25.060875,1.99,-0.67,0.48,-0.15162547876700738,-0.32615840396644036,-1.3166327544732224
2025-03-19 14:51:25.122156,4.0200000000000005,-0.12,3.21,-0.11562806294462433,-0.4985096676008804,-1.9765853778835782
2025-03-19 14:51:25.182957,11.23,-6.5200000000000005,1.71,-0.3687008044838021,-0.8006697943523987,-2.8557949885757217
2025-03-19 14:51:25.241508,3.58,-20.77,4.28,-0.8792096106921435,-1.1126473981463851,-3.4262994878213684
2025-03-19 14:51:25.300034,-0.85,-22.27,5.44,-0.36979163526629855,-0.6283185307179586,-1.0831949670189809
2025-03-19 14:51:25.360530,-2.5100000000000002,-9.09,6.3500000000000005,-0.978475211899321,-0.007635815477475192,1.736602605734358
2025-03-19 14:51:25.421695,-0.11,-7.57,5.59,-0.5803219762881145,0.8868454261696187,4.265148359561143
2025-03-19 14:51:25.482351,4.99,-0.45,4.86,-1.2642728769133924,1.471530725587719,5.171628739815698
2025-03-19 14:51:25.542097,8.81,14.530000000000001,0.85,-0.08617563181722002,1.3864459245529954,4.842197843501768
2025-03-19 14:51:25.600733,6.2700000000000005,21.740000000000002,-11.28,0.868301302867179,1.0090184738092218,1.9744037163185852
2025-03-19 14:51:25.661101,7.61,12.8,-8.85,-1.1650072757062149,-0.7821256710499589,-2.171844087950444
2025-03-19 14:51:25.724151,-0.75,3.36,4.8,-0.3916082509162277,-0.9446594576419308,-1.8456856839840035
2025-03-19 14:51:25.784722,-0.28,-0.45,-0.8300000000000001,-0.28688849579656794,-0.4799655442984406,-0.9413869652944415
2025-03-19 14:51:25.843392,-0.1,-0.71,-0.12,-0.22143864884678055,-0.14944381720201447,-0.7155849933176751
2025-03-19 14:51:25.902051,0.22,-0.45,0.01,-0.30870511144649704,-0.13962634015954636,-0.6861325621902709
2025-03-19 14:51:25.961606,0.24,-0.6900000000000001,-0.11,-0.40906154343617096,-0.2083486794568231,-0.7275841319251362
2025-03-19 14:51:26.022691,1.16,-1.36,-0.56,-0.385063266221249,-0.2279836335417593,-1.0733774899765127
2025-03-19 14:51:26.083531,3.38,0.05,3.11,0.013089969389957472,-0.36979163526629855,-1.8773197766764007
2025-03-19 14:51:26.143388,5.86,-3.95,2.47,0.37088246604879505,-0.581412807070611,-2.891792404398105
2025-03-19 14:51:26.201887,13.19,-20.400000000000002,0.72,-1.0722866591940161,-1.2588187230009102,-3.940080786377199
2025-03-19 14:51:26.260538,7.15,-4.64,-0.65,1.27736284630335,-0.5126904677733343,-2.2852904893300754
2025-03-19 14:51:26.320850,-3.4,-11.14,3.22,-0.44505895925855404,0.3937899124812206,1.0275625971116615
2025-03-19 14:51:26.381587,-1.76,-10.5,1.86,0.4068798818711781,1.3340860469931657,3.5899241051958364
2025-03-19 14:51:26.443305,2.95,-5.73,-0.25,-0.34579335805137656,1.6515178046996344,5.1367221547758115
2025-03-19 14:51:26.501894,9.77,3.47,-3.0,-0.7308566242726255,1.1900963837036334,5.633050160811699
2025-03-19 14:51:26.560911,10.08,19.990000000000002,-2.6,0.8639379797371931,0.9261153343394911,4.560763501617682
2025-03-19 14:51:26.621351,4.5600000000000005,29.01,-6.5600000000000005,0.7886706557449377,-0.3436116964863836,0.8257589023498172
2025-03-19 14:51:26.681637,1.16,-1.8800000000000001,9.66,-0.8039422866998881,-0.7384924397501007,-2.493639168786898
