Time,AccX,AccY,AccZ,GyroX,GyroY,GyroZ
2025-02-10 16:06:07.408965,0.0,0.0,0.0,0.001090830782496456,-0.004363323129985824,0.002181661564992912
2025-02-10 16:06:07.465763,0.0,0.0,0.0,0.0,-0.00545415391248228,0.0
2025-02-10 16:06:07.521972,0.0,-0.22,0.0,-0.001090830782496456,-0.004363323129985824,0.0
2025-02-10 16:06:07.577769,-0.03,-0.21,-0.01,-0.001090830782496456,-0.002181661564992912,0.001090830782496456
2025-02-10 16:06:07.634642,-0.01,-0.2,0.0,0.0,-0.002181661564992912,0.002181661564992912
2025-02-10 16:06:07.689321,-0.01,-0.23,0.0,0.0,-0.003272492347489368,0.0
2025-02-10 16:06:07.751423,-0.02,-0.24,0.02,-0.001090830782496456,-0.003272492347489368,0.004363323129985824
2025-02-10 16:06:07.808385,-0.01,-0.22,0.03,-0.002181661564992912,0.0,-0.001090830782496456
2025-02-10 16:06:07.869000,1.28,-0.22,0.01,0.0,-0.001090830782496456,0.001090830782496456
2025-02-10 16:06:07.925885,-0.02,-0.25,0.02,-0.002181661564992912,-0.001090830782496456,0.001090830782496456
2025-02-10 16:06:07.985787,0.0,-0.23,-0.01,-0.001090830782496456,-0.001090830782496456,0.0
2025-02-10 16:06:08.041251,0.0,-0.23,-0.01,-0.001090830782496456,-0.004363323129985824,0.002181661564992912
2025-02-10 16:06:08.101644,-0.02,-0.22,-0.03,-0.001090830782496456,-0.003272492347489368,0.001090830782496456
2025-02-10 16:06:08.157892,-0.02,-0.23,0.0,0.001090830782496456,0.001090830782496456,-0.001090830782496456
2025-02-10 16:06:08.218793,-0.03,-0.21,-0.01,0.0,0.001090830782496456,-0.002181661564992912
2025-02-10 16:06:08.274173,0.0,-0.22,0.06,0.002181661564992912,0.0,0.0
2025-02-10 16:06:08.334626,0.0,-0.24,0.01,0.0,-0.003272492347489368,0.001090830782496456
2025-02-10 16:06:08.393142,-0.02,-0.23,-0.02,0.002181661564992912,0.0,0.002181661564992912
2025-02-10 16:06:08.452487,-0.03,-0.21,-0.01,-0.002181661564992912,0.002181661564992912,0.003272492347489368
2025-02-10 16:06:08.511740,-0.01,-0.21,-0.01,-0.001090830782496456,-0.001090830782496456,-0.002181661564992912
2025-02-10 16:06:08.572223,0.01,-0.22,0.0,0.13962634015954636,0.0,-0.002181661564992912
2025-02-10 16:06:08.629377,0.0,-0.23,0.0,0.0,0.002181661564992912,-0.002181661564992912
2025-02-10 16:06:08.689862,0.0,-0.23,-0.03,0.002181661564992912,0.0,-0.001090830782496456
2025-02-10 16:06:08.745667,0.0,-0.24,0.01,0.0,-0.001090830782496456,0.0
2025-02-10 16:06:08.805709,-0.01,-0.23,-0.01,0.14180800172453928,0.002181661564992912,-0.001090830782496456
2025-02-10 16:06:08.862484,-0.01,-0.25,0.03,-0.001090830782496456,-0.001090830782496456,0.0
2025-02-10 16:06:08.923581,-0.01,-0.22,0.03,0.003272492347489368,0.001090830782496456,0.0
2025-02-10 16:06:08.982313,-0.02,-0.22,0.02,0.0,0.0,0.0
2025-02-10 16:06:09.037149,-0.01,-0.22,-0.02,-0.001090830782496456,-0.002181661564992912,0.0
2025-02-10 16:06:09.096539,1.28,-0.23,-0.03,0.13962634015954636,0.0,0.001090830782496456
2025-02-10 16:06:09.157294,-0.03,-0.25,0.0,-0.002181661564992912,-0.003272492347489368,0.001090830782496456
2025-02-10 16:06:09.213071,-0.02,-0.23,-0.03,-0.002181661564992912,0.002181661564992912,0.0
2025-02-10 16:06:09.273100,0.0,-0.23,0.01,0.0,-0.001090830782496456,0.0
2025-02-10 16:06:09.328675,0.0,-0.23,0.04,0.0,-0.004363323129985824,0.001090830782496456
2025-02-10 16:06:09.388683,1.28,-0.21,-0.02,-0.002181661564992912,0.0,-0.001090830782496456
2025-02-10 16:06:09.446449,-0.03,-0.23,-0.01,0.001090830782496456,0.003272492347489368,-0.001090830782496456
2025-02-10 16:06:09.507237,-0.02,-0.23,0.02,0.0,-0.001090830782496456,-0.001090830782496456
2025-02-10 16:06:09.562418,0.02,-0.24,0.05,0.003272492347489368,0.0,-0.001090830782496456
2025-02-10 16:06:09.622642,1.28,-0.25,0.0,0.001090830782496456,-0.001090830782496456,0.001090830782496456
2025-02-10 16:06:09.679159,-0.02,-0.24,0.0,-0.002181661564992912,0.0,0.001090830782496456
2025-02-10 16:06:09.739495,-0.03,-0.23,0.0,0.0,-0.004363323129985824,-0.001090830782496456
2025-02-10 16:06:09.798061,0.0,-0.24,-0.01,0.0,0.002181661564992912,0.001090830782496456
2025-02-10 16:06:09.855114,-0.02,-0.22,0.0,-0.001090830782496456,0.003272492347489368,0.001090830782496456
2025-02-10 16:06:09.911249,-0.03,-0.23,0.0,0.001090830782496456,0.00545415391248228,-0.001090830782496456
2025-02-10 16:06:09.969633,-0.01,-0.22,-0.01,0.14289883250703572,-0.002181661564992912,0.001090830782496456
2025-02-10 16:06:10.028803,-0.03,-0.24,0.01,0.14180800172453928,0.002181661564992912,0.002181661564992912
2025-02-10 16:06:10.089324,-0.01,-0.21,0.0,0.001090830782496456,-0.001090830782496456,0.0
2025-02-10 16:06:10.145342,-0.01,-0.24,-0.01,0.0,0.002181661564992912,-0.001090830782496456
2025-02-10 16:06:10.206248,-0.03,-0.24,0.0,0.0,-0.001090830782496456,-0.002181661564992912
2025-02-10 16:06:10.262939,0.0,-0.24,-0.01,0.0,-0.003272492347489368,0.0
2025-02-10 16:06:10.322412,-0.02,-0.22,0.0,-0.002181661564992912,-0.001090830782496456,0.001090830782496456
2025-02-10 16:06:10.380266,-0.02,-0.22,0.02,-0.001090830782496456,0.004363323129985824,-0.001090830782496456
2025-02-10 16:06:10.440597,-0.01,-0.23,-0.02,-0.002181661564992912,-0.001090830782496456,0.001090830782496456
2025-02-10 16:06:10.495581,-0.03,-0.22,-0.02,-0.001090830782496456,0.002181661564992912,0.0
2025-02-10 16:06:10.555442,-0.02,-0.22,0.01,-0.004363323129985824,0.003272492347489368,0.002181661564992912
2025-02-10 16:06:10.613408,0.0,-0.22,0.01,-0.001090830782496456,0.001090830782496456,0.0
2025-02-10 16:06:10.672457,-0.02,-0.24,-0.01,-0.003272492347489368,0.003272492347489368,0.0
2025-02-10 16:06:10.728367,-0.02,-0.22,0.0,0.002181661564992912,-0.003272492347489368,0.0
2025-02-10 16:06:10.787691,-0.01,-0.22,0.02,-0.002181661564992912,0.0,0.0
2025-02-10 16:06:10.844619,0.01,-0.48,0.45,-0.33597588100890846,-0.017453292519943295,-0.39051742013373125
2025-02-10 16:06:10.905086,-0.17,0.06,0.01,-0.026179938779914945,0.007635815477475192,-0.10253809355466686
2025-02-10 16:06:10.962225,0.0,-2.48,0.66,-0.10799224746714914,-0.13199052468207118,-0.7483099167925688
2025-02-10 16:06:11.021046,-0.06,-0.16,-0.05,-0.8344855486097889,-0.10035643198967395,0.3839724354387525
2025-02-10 16:06:11.076300,-0.02,-0.33,-0.13,1.385355093770499,-0.12871803233458182,0.44505895925855404
2025-02-10 16:06:11.135529,0.15,-0.02,0.66,-1.1366456753613072,0.5148721293383273,-0.5639595145506677
2025-02-10 16:06:11.193819,0.05,-0.38,-0.72,0.6894050545377601,-0.10690141668465268,-0.18653206380689397
2025-02-10 16:06:11.253140,0.62,-0.25,0.08,-0.43524148221608594,0.12544553998709243,-0.04254240051736178
2025-02-10 16:06:11.312928,1.41,-0.32,-0.9,-0.990474350506782,0.04254240051736178,-0.09490227807719166
2025-02-10 16:06:11.372598,-0.23,-0.35000000000000003,-0.16,-0.26616271092913524,-0.17016960206944712,-0.09272061651219876
2025-02-10 16:06:11.427957,-0.08,-0.22,-0.38,0.21162117180431245,0.04036073895236887,-0.039269908169872414
2025-02-10 16:06:11.486163,1.32,-0.24,-0.06,-0.030543261909900768,0.04145156973486533,-0.016362461737446838
2025-02-10 16:06:11.541177,-0.08,-0.2,0.0,-0.02181661564992912,-0.009817477042468103,0.05672320068981571
2025-02-10 16:06:11.601362,-0.1,-0.21,-0.08,-0.044724062082354694,-0.030543261909900768,-0.018544123302439753
2025-02-10 16:06:11.659039,-0.13,-0.19,0.18,0.03381575425739013,-0.017453292519943295,0.006544984694978736
2025-02-10 16:06:11.718376,0.01,-0.21,-0.07,-0.07853981633974483,0.004363323129985824,-0.05345070834232634
2025-02-10 16:06:11.773303,-0.06,-0.1,0.04,0.020725784867432664,0.00545415391248228,0.026179938779914945
2025-02-10 16:06:11.831107,-1.23,-0.79,1.32,-0.6446809924554054,1.9034997154563156,0.7548549014875475
2025-02-10 16:06:11.890661,0.81,0.12,-3.8000000000000003,-1.942769623626188,0.6719517620178169,-0.12980886311707826
2025-02-10 16:06:11.951769,0.26,0.01,1.57,-0.8933904108645975,-0.08617563181722002,0.8792096106921435
2025-02-10 16:06:12.009702,0.72,-0.9500000000000001,0.59,0.28361600344907856,0.16580627893946132,-0.8497571795647392
2025-02-10 16:06:12.067151,0.24,-0.08,0.86,0.8039422866998881,-0.18980455615438332,0.17780541754692233
2025-02-10 16:06:12.126071,1.6600000000000001,-0.49,0.37,-0.008726646259971648,0.0272707695624114,0.013089969389957472
2025-02-10 16:06:12.184938,-0.12,-0.53,0.08,-0.016362461737446838,-0.00545415391248228,0.006544984694978736
2025-02-10 16:06:12.240266,0.68,-0.43,0.46,0.07417649320975901,0.031634092692397225,-0.01090830782496456
2025-02-10 16:06:12.299179,-0.04,-0.24,0.17,-0.14944381720201447,0.006544984694978736,-0.04690572364734761
2025-02-10 16:06:12.358976,-0.2,-0.13,-0.09,0.16689710972195776,-0.001090830782496456,0.003272492347489368
2025-02-10 16:06:12.417245,0.05,-0.22,0.18,-0.025089107997418487,0.004363323129985824,-0.03381575425739013
2025-02-10 16:06:12.477410,1.4000000000000001,-0.26,-0.05,0.017453292519943295,0.001090830782496456,0.014180800172453928
2025-02-10 16:06:12.535334,-0.21,-0.29,0.11,-0.04581489286485115,-0.009817477042468103,-0.026179938779914945
2025-02-10 16:06:12.590638,0.29,-0.31,-0.07,-0.004363323129985824,0.008726646259971648,-0.022907446432425576
2025-02-10 16:06:12.649684,-0.04,-0.21,-0.14,-0.022907446432425576,-0.031634092692397225,-0.007635815477475192
2025-02-10 16:06:12.710342,-0.18,-0.17,-0.17,0.04581489286485115,-0.04690572364734761,-0.06654067773228381
2025-02-10 16:06:12.770294,0.08,-0.15,0.1,-0.17453292519943295,0.001090830782496456,-0.04145156973486533
2025-02-10 16:06:12.826740,-0.12,-0.21,-0.02,0.0545415391248228,0.002181661564992912,0.032724923474893676
2025-02-10 16:06:12.882794,0.05,-0.16,0.14,0.1559888018969932,-0.01090830782496456,-0.038179077387375956
2025-02-10 16:06:12.940786,1.99,0.28,-0.24,0.16798794050445423,-0.15926129424448257,0.04690572364734761
2025-02-10 16:06:12.996185,-1.78,-0.22,-0.18,0.6108652381980153,-0.20507618710933373,0.26398104936414235
2025-02-10 16:06:13.056091,-0.04,-0.16,0.1,-0.3076142806640006,0.02945243112740431,-0.1265363707695889
2025-02-10 16:06:13.112510,0.24,-0.04,0.01,0.23125612588924865,-0.026179938779914945,0.05126904677733343
2025-02-10 16:06:13.172664,-0.43,-0.23,-0.03,0.11453723216212788,-0.018544123302439753,0.10253809355466686
2025-02-10 16:06:13.230079,0.06,-0.61,0.53,0.45705809786601503,0.12435470920459599,0.17780541754692233
2025-02-10 16:06:13.288270,1.46,-0.2,0.08,-0.06326818538479445,-0.02399827721492203,-0.11235557059713497
2025-02-10 16:06:13.344432,0.41000000000000003,-0.32,-0.71,-0.2977968036215325,0.008726646259971648,-0.01090830782496456
2025-02-10 16:06:13.405051,-0.52,0.03,0.22,0.3785182815262702,-0.07744898555724837,0.20180369476184434
2025-02-10 16:06:13.461159,0.1,-0.29,-0.6,-0.40033489717619936,0.10581058590215622,-0.12435470920459599
2025-02-10 16:06:13.521588,-0.07,-0.18,0.33,0.044724062082354694,-0.020725784867432664,0.031634092692397225
2025-02-10 16:06:13.579823,-0.19,-0.18,-0.29,-0.19198621771937624,0.031634092692397225,-0.12871803233458182
2025-02-10 16:06:13.638412,0.13,-0.15,0.23,0.06326818538479445,0.001090830782496456,0.04799655442984406
2025-02-10 16:06:13.693244,-0.14,-0.25,-0.26,-0.04799655442984406,0.0272707695624114,0.014180800172453928
2025-02-10 16:06:13.751617,-0.4,-0.13,0.02,0.14835298641951802,0.002181661564992912,-0.008726646259971648
2025-02-10 16:06:13.812599,0.12,-0.12,0.18,-0.003272492347489368,0.037088246604879506,0.0
2025-02-10 16:06:13.873745,-0.13,-0.25,0.03,0.1559888018969932,-0.009817477042468103,0.08944812416470939
2025-02-10 16:06:13.932453,-0.16,-0.2,-0.04,-0.1407171709420428,-0.002181661564992912,-0.07417649320975901
2025-02-10 16:06:13.992621,0.25,-0.2,0.0,-0.003272492347489368,-0.001090830782496456,-0.016362461737446838
2025-02-10 16:06:14.049581,0.08,-0.17,0.23,0.1090830782496456,-0.004363323129985824,0.0545415391248228
2025-02-10 16:06:14.113462,-0.13,-0.14,-0.15,-0.07090400086226964,0.007635815477475192,-0.1090830782496456
2025-02-10 16:06:14.176882,-0.16,-0.13,0.13,-0.0545415391248228,0.007635815477475192,-0.02945243112740431
2025-02-10 16:06:14.234341,0.26,-0.29,0.25,0.015271630954950384,0.00545415391248228,-0.015271630954950384
2025-02-10 16:06:14.289417,-0.01,-0.22,-0.07,-0.003272492347489368,-0.006544984694978736,-0.00545415391248228
2025-02-10 16:06:14.346592,0.04,-0.3,-0.2,-0.17780541754692233,0.007635815477475192,-0.05126904677733343
2025-02-10 16:06:14.401199,-0.18,0.0,0.13,0.03599741582238305,0.00545415391248228,-0.002181661564992912
2025-02-10 16:06:14.456083,-0.14,-0.05,0.45,-0.20180369476184434,-0.008726646259971648,-0.08944812416470939
2025-02-10 16:06:14.513568,0.0,-0.22,-0.58,-0.10581058590215622,0.03381575425739013,-0.002181661564992912
2025-02-10 16:06:14.568164,-0.11,-0.19,-0.01,-0.04254240051736178,0.003272492347489368,-0.011999138607461015
2025-02-10 16:06:14.625041,-0.1,-0.4,0.37,0.16471544815696484,-0.026179938779914945,0.06763150851478027
2025-02-10 16:06:14.679978,0.19,-0.32,-0.24,-0.10362892433716332,0.004363323129985824,-0.025089107997418487
2025-02-10 16:06:14.736717,0.0,-0.32,-0.3,-0.003272492347489368,0.003272492347489368,0.017453292519943295
2025-02-10 16:06:14.791365,0.04,-0.28,0.02,-0.07526732399225546,0.001090830782496456,-0.030543261909900768
2025-02-10 16:06:14.846890,0.17,-0.2,-0.05,0.003272492347489368,-0.002181661564992912,-0.00545415391248228
2025-02-10 16:06:14.902674,-0.09,-0.26,0.18,0.008726646259971648,0.002181661564992912,0.008726646259971648
2025-02-10 16:06:14.958608,-0.07,-0.22,-0.22,0.004363323129985824,0.003272492347489368,-0.003272492347489368
2025-02-10 16:06:15.015181,-0.05,-0.24,0.04,0.003272492347489368,0.003272492347489368,-0.00545415391248228
2025-02-10 16:06:15.070285,0.0,-0.24,0.0,-0.001090830782496456,0.001090830782496456,0.0
2025-02-10 16:06:15.127587,-0.08,-0.2,0.01,0.0,0.001090830782496456,0.004363323129985824
2025-02-10 16:06:15.182306,-0.03,-0.22,-0.02,0.02399827721492203,0.00545415391248228,0.003272492347489368
2025-02-10 16:06:15.239199,0.03,-0.18,-0.05,0.05781403147231216,0.001090830782496456,0.026179938779914945
2025-02-10 16:06:15.293775,-0.05,-0.29,-0.04,-0.15707963267948966,0.009817477042468103,-0.07635815477475191
2025-02-10 16:06:15.348646,-0.09,-0.09,-0.14,0.20507618710933373,-0.06435901616729091,0.1090830782496456
2025-02-10 16:06:15.403304,-0.05,-0.24,-0.04,0.04363323129985824,0.00545415391248228,0.017453292519943295
2025-02-10 16:06:15.460300,0.04,-0.31,-0.02,0.018544123302439753,0.009817477042468103,0.007635815477475192
2025-02-10 16:06:15.515507,0.03,-0.24,-0.04,-0.037088246604879506,0.007635815477475192,-0.032724923474893676
2025-02-10 16:06:15.571609,-0.12,-0.3,-0.13,0.038179077387375956,0.02399827721492203,0.01090830782496456
2025-02-10 16:06:15.628082,-4.53,1.27,-0.34,1.2566370614359172,1.499892325932627,0.4723297288209654
2025-02-10 16:06:15.683420,0.43,-0.15,1.42,1.2239121379610236,-0.06326818538479445,-0.006544984694978736
2025-02-10 16:06:15.741090,-0.15,-0.34,-1.1500000000000001,-0.7483099167925688,0.14508049407202864,-0.3643374813538163
2025-02-10 16:06:15.795808,0.06,-0.41000000000000003,-0.32,-0.15926129424448257,0.04363323129985824,-0.11453723216212788
2025-02-10 16:06:15.850532,0.09,-0.26,0.02,-0.014180800172453928,0.019634954084936207,-0.05999569303730508
2025-02-10 16:06:15.905384,-0.14,-0.25,-0.38,0.08290313946973066,0.001090830782496456,0.07308566242726255
2025-02-10 16:06:15.960449,-0.01,-0.24,0.24,-0.02399827721492203,0.0,-0.014180800172453928
2025-02-10 16:06:16.015466,-0.11,-0.27,0.05,0.019634954084936207,-0.02181661564992912,-0.006544984694978736
2025-02-10 16:06:16.073155,2.33,-0.62,1.84,1.1039207518864134,0.3839724354387525,-0.003272492347489368
2025-02-10 16:06:16.127589,0.0,-0.56,0.41000000000000003,-0.025089107997418487,-0.08399397025222712,-0.4232423436086249
2025-02-10 16:06:16.184474,-0.38,0.19,-0.41000000000000003,0.08835729338221293,0.026179938779914945,0.003272492347489368
2025-02-10 16:06:16.239771,0.93,-0.53,1.03,0.5519603759432067,-0.2912518189265537,0.09053895494720585
2025-02-10 16:06:16.295925,-0.29,-0.12,0.27,-0.3337942194439155,0.1505346479845109,-0.16798794050445423
2025-02-10 16:06:16.349973,0.11,-0.39,-0.12,-0.06872233929727672,-0.02399827721492203,-0.006544984694978736
2025-02-10 16:06:16.404075,0.11,-0.22,0.09,0.014180800172453928,-0.014180800172453928,0.008726646259971648
2025-02-10 16:06:16.458130,-0.22,-0.25,-0.21,0.017453292519943295,0.007635815477475192,-0.020725784867432664
2025-02-10 16:06:16.512173,-0.55,0.08,0.18,0.037088246604879506,-0.05126904677733343,0.1341721862470641
2025-02-10 16:06:16.566456,-1.8,-0.93,-0.34,-0.12871803233458182,0.07090400086226964,0.5246896063807953
2025-02-10 16:06:16.629503,0.13,3.31,-1.1500000000000001,6.530803894806282,-1.4453507868078042,0.15162547876700738
2025-02-10 16:06:16.686943,1.87,1.79,1.9000000000000001,-7.947793081269178,1.8893189152838616,-0.717766654882668
2025-02-10 16:06:16.741724,-0.98,1.43,0.81,7.976154681614086,0.7406741013150936,-1.2010046915285981
2025-02-10 16:06:16.799006,1.08,-1.84,-0.08,-0.9981101659842572,-0.8628471489546967,2.0158552860534504
2025-02-10 16:06:16.853168,-0.01,0.0,1.33,0.9097528726020443,0.007635815477475192,-0.6294093615004551
2025-02-10 16:06:16.912945,-0.62,0.32,-1.9000000000000001,-0.2585268954516601,0.07090400086226964,1.261000384565903
2025-02-10 16:06:16.968276,0.02,-0.02,0.91,0.2879793265790644,0.41560652813114973,-0.4985096676008804
2025-02-10 16:06:17.022621,0.02,-0.37,-0.35000000000000003,0.18216874067690814,-0.04254240051736178,-0.2585268954516601
2025-02-10 16:06:17.079109,0.16,-0.15,0.17,-0.2399827721492203,-0.05235987755982989,0.3763366199612773
2025-02-10 16:06:17.133606,0.58,-0.21,1.68,1.2326387842209952,-0.4494222823885399,-0.07417649320975901
2025-02-10 16:06:17.189966,-1.53,-0.75,-1.53,-2.1325741797805713,0.8464846872172498,-0.284706834231575
2025-02-10 16:06:17.244757,0.17,-1.33,1.56,1.1213740444063567,-0.46796640569097964,0.055632369907319255
2025-02-10 16:06:17.301003,0.41000000000000003,-0.55,0.31,-0.21271200258680892,-0.32288591161895097,0.6130468997630083
2025-02-10 16:06:17.354873,-0.5700000000000001,-0.81,0.32,0.06654067773228381,-0.892299580082101,-0.7744898555724837
2025-02-10 16:06:17.408759,0.32,-1.36,0.97,-1.3722651243805417,0.6272276999354622,0.29670597283903605
2025-02-10 16:06:17.462840,-1.0,1.57,-0.32,1.7213309747794074,-0.6468626540203984,-0.006544984694978736
2025-02-10 16:06:17.516735,-0.11,-0.33,-0.09,-1.0133817969392076,-0.08617563181722002,-0.9719302272043423
2025-02-10 16:06:17.570618,-0.13,-0.33,-1.26,-1.1519173063162575,0.2530727415391778,0.7090400086226963
2025-02-10 16:06:17.624575,1.05,-1.97,3.56,4.343688175900888,-0.9719302272043423,-0.2716168648416175
2025-02-10 16:06:17.681732,-0.44,-0.56,0.06,-0.4636030825609938,0.717766654882668,1.5675238344474072
2025-02-10 16:06:17.735635,0.05,0.7000000000000001,1.43,0.6043202535030366,0.5235987755982988,0.9522952731194061
2025-02-10 16:06:17.792617,-0.33,-0.66,2.27,0.5868669609830933,0.1538071403320003,0.30543261909900765
2025-02-10 16:06:17.846486,-0.9500000000000001,-0.8200000000000001,0.19,-0.2977968036215325,0.5410520681182421,0.20725784867432664
2025-02-10 16:06:17.903674,-0.9500000000000001,1.93,0.73,-0.15162547876700738,-0.02945243112740431,0.6043202535030366
2025-02-10 16:06:17.957572,-0.77,0.19,3.19,0.08726646259971647,0.4341506514335895,-0.016362461737446838
2025-02-10 16:06:18.011841,-1.84,1.06,-2.07,0.56941366846315,0.23561944901923448,-0.1810779098944117
2025-02-10 16:06:18.067493,-0.14,0.4,2.74,-0.08072147790473774,0.2279836335417593,1.3460851856006266
2025-02-10 16:06:18.125852,0.23,1.6400000000000001,2.23,2.13911916447555,-0.545415391248228,-0.22580197197676638
2025-02-10 16:06:18.182895,-0.96,1.29,-1.67,0.25634523388666713,0.7657632093125121,-0.36760997370130566
2025-02-10 16:06:18.237575,-0.42,1.94,-1.1,-0.30325095753401476,0.6021385919380436,-0.05672320068981571
2025-02-10 16:06:18.294673,-0.14,-0.14,-1.99,-0.04145156973486533,0.284706834231575,-0.3959715740462135
2025-02-10 16:06:18.348807,0.31,0.71,-0.93,0.13526301702956053,0.3043417883165112,-0.01090830782496456
2025-02-10 16:06:18.407684,-0.28,-0.16,-1.6400000000000001,-0.940296134511945,0.4919646829059016,-0.20507618710933373
2025-02-10 16:06:18.461821,-0.08,0.07,-0.37,-0.4461497900410505,0.05781403147231216,-0.15489797111449674
2025-02-10 16:06:18.518312,-0.08,-0.41000000000000003,-0.41000000000000003,0.8868454261696187,-0.1930770485018727,-0.39269908169872414
2025-02-10 16:06:18.572394,0.19,-0.99,-0.8,-0.8475755179997463,0.2683443724941282,0.19198621771937624
2025-02-10 16:06:18.627257,0.0,-0.4,-0.61,-0.2617993877991494,0.39269908169872414,0.20616701789183017
2025-02-10 16:06:18.681505,0.4,-0.8,-0.25,0.055632369907319255,-0.03490658503988659,0.09599310885968812
2025-02-10 16:06:18.740792,0.7000000000000001,-1.27,0.44,0.4385139745635753,-0.1407171709420428,0.06544984694978735
2025-02-10 16:06:18.798640,0.98,-0.68,-0.16,0.8857545953871222,-0.2181661564992912,0.04690572364734761
2025-02-10 16:06:18.854221,0.71,-1.19,-1.48,-0.34033920413889424,-0.044724062082354694,0.16253378659197193
2025-02-10 16:06:18.910758,1.11,-1.26,-0.8300000000000001,-1.069014166846527,0.11999138607461016,-0.12217304763960307
2025-02-10 16:06:18.965398,0.31,-0.53,0.16,0.9217520112095053,-0.27052603405912107,-0.2585268954516601
2025-02-10 16:06:19.020236,-0.21,0.04,0.26,1.0788316438889949,-0.23889194136672387,-0.21271200258680892
2025-02-10 16:06:19.074884,-0.68,-1.2,-1.74,-1.2893619849108109,0.32834006553143325,0.06763150851478027
2025-02-10 16:06:19.130351,-0.38,-0.25,0.85,1.634064512179691,-0.13744467859455345,0.02945243112740431
2025-02-10 16:06:19.185703,0.2,-0.04,0.59,1.1486448139687682,0.004363323129985824,-0.11562806294462433
2025-02-10 16:06:19.245156,-0.17,0.33,0.6900000000000001,-0.9719302272043423,0.39269908169872414,0.06981317007977318
2025-02-10 16:06:19.305005,1.53,0.73,0.72,1.9482237775386704,-0.07526732399225546,-0.16035212502697901
2025-02-10 16:06:19.365330,-0.15,0.47000000000000003,-0.62,-1.0995574287564276,0.11671889372712078,-0.22143864884678055
2025-02-10 16:06:19.423147,-0.28,0.35000000000000003,1.77,0.2748893571891069,-0.5148721293383273,-0.8868454261696187
2025-02-10 16:06:19.480666,1.8,0.03,-0.59,-0.8432121948697605,0.10144726277217041,-0.4821472058634335
2025-02-10 16:06:19.540621,0.05,-0.05,0.47000000000000003,-1.7049685130419607,0.30652344988150415,-0.3108867730114899
2025-02-10 16:06:19.600537,-0.03,-0.26,-0.02,-0.02945243112740431,-0.10253809355466686,-0.26725354171163174
2025-02-10 16:06:19.660489,0.33,0.61,-0.19,-0.004363323129985824,-0.12544553998709243,0.050178215994836975
2025-02-10 16:06:19.719702,0.16,-0.11,-0.79,-0.10362892433716332,-0.06217735460229799,0.13526301702956053
2025-02-10 16:06:19.779341,-0.31,-0.63,-0.65,-0.4439681284760576,0.05999569303730508,0.20507618710933373
2025-02-10 16:06:19.838081,-0.68,-0.62,-1.09,0.8912087492996045,-0.559596191420682,-0.20943951023931956
2025-02-10 16:06:19.898837,-0.76,-0.38,0.22,0.22143864884678055,-0.21707532571679475,0.1439896632895322
2025-02-10 16:06:19.958753,-0.66,-0.55,0.08,0.015271630954950384,-0.21707532571679475,0.3687008044838021
2025-02-10 16:06:20.018923,-0.77,-0.8200000000000001,0.13,0.8093964406123704,-0.41560652813114973,0.13744467859455345
2025-02-10 16:06:20.077547,-0.48,0.18,-0.33,1.892591407631351,-0.6795875774952921,0.21598449493429828
2025-02-10 16:06:20.136385,-0.92,0.33,-0.18,-1.6406094968746698,-0.14289883250703572,0.4276056667386107
2025-02-10 16:06:20.196944,0.28,0.2,0.91,1.2708178616083712,-0.421060682043632,0.0818123086872342
2025-02-10 16:06:20.257421,-0.17,-0.87,-2.0300000000000002,-1.9602229161461313,0.09381144729469522,-0.3021601267515183
2025-02-10 16:06:20.317740,0.6900000000000001,-0.56,0.41000000000000003,1.0450158896316049,0.025089107997418487,0.5683228376806536
2025-02-10 16:06:20.375906,0.24,0.54,0.63,-0.9773843811168246,0.3294308963139297,0.5770494839406252
2025-02-10 16:06:20.434514,0.52,-0.18,0.17,-0.21271200258680892,0.09490227807719166,0.4690572364734761
2025-02-10 16:06:20.493845,-0.02,-0.12,0.09,0.16689710972195776,-0.28361600344907856,0.11562806294462433
2025-02-10 16:06:20.554339,0.02,-0.33,-0.75,-0.4526947747360292,-0.46142142099600086,0.09272061651219876
2025-02-10 16:06:20.614649,0.45,-0.2,-0.06,-0.3523383427463553,-0.2552544031041707,-0.18216874067690814
2025-02-10 16:06:20.674364,0.22,0.33,0.38,-0.47451139038595835,0.02181661564992912,-0.061086523819801536
2025-02-10 16:06:20.733041,0.34,-0.7000000000000001,-0.02,-0.3010692959690218,-0.20398535632683726,-0.10035643198967395
2025-02-10 16:06:20.791900,0.49,0.21,-0.49,1.0559241974565694,-0.32070425005395803,-0.6414085001079161
2025-02-10 16:06:20.852498,0.26,0.09,0.19,0.6795875774952921,-0.19198621771937624,-0.1734420944169365
2025-02-10 16:06:20.912889,-0.9,-0.74,-1.3900000000000001,1.27736284630335,-0.38069994309126315,-0.5661411761156606
2025-02-10 16:06:20.973255,0.06,0.18,0.99,-0.8213955792198313,-0.37088246604879505,-0.5966844380255614
2025-02-10 16:06:21.031865,-0.21,0.59,-0.23,1.22500296874352,0.35124751196385884,-0.3076142806640006
2025-02-10 16:06:21.090130,-0.43,0.21,0.64,-0.7908523173099306,0.039269908169872414,0.15271630954950383
2025-02-10 16:06:21.150126,0.3,-3.17,-0.18,-0.05781403147231216,-0.0818123086872342,-0.6523168079328807
2025-02-10 16:06:21.210022,-0.23,-0.29,0.4,-0.667588438887831,-0.20943951023931956,-0.22143864884678055
2025-02-10 16:06:21.270065,-0.76,-0.14,0.5700000000000001,-0.35015668118136234,-0.33161255787892263,-0.3097959422289935
2025-02-10 16:06:21.328868,-0.06,-0.39,-0.78,-0.5312345910757741,-0.6337726846304409,-0.7254024703601433
2025-02-10 16:06:21.387066,-0.03,-0.24,1.0,0.32179508083645453,-1.451895771502783,-0.4505131131710363
2025-02-10 16:06:21.445443,-3.27,-0.54,1.02,-0.4177881896961426,-1.5031648182801163,-0.09599310885968812
2025-02-10 16:06:21.505591,-0.81,0.67,0.41000000000000003,-0.4134248665661568,-1.9885845164910392,-0.19634954084936207
2025-02-10 16:06:21.566383,0.0,0.0,-0.38,-1.0701049976290233,-0.2977968036215325,-0.14726215563702155
2025-02-10 16:06:21.627028,0.75,0.46,-0.46,-0.2596177262341565,-0.46796640569097964,0.42978732830360367
2025-02-10 16:06:21.685291,0.58,0.88,-0.75,-0.7155849933176751,-0.01090830782496456,0.1832595714594046
2025-02-10 16:06:21.743390,0.32,0.85,0.12,-1.2020955223110945,0.030543261909900768,0.3916082509162277
2025-02-10 16:06:21.803602,0.18,1.41,0.03,-1.1802789066611654,-0.04363323129985824,0.17671458676442586
2025-02-10 16:06:21.864351,-0.59,1.56,0.2,-0.1734420944169365,-0.11344640137963143,0.3523383427463553
2025-02-10 16:06:21.926572,0.04,1.61,-0.77,-0.9348419805994628,-0.8999353955595761,0.5737769915931359
2025-02-10 16:06:21.984755,0.05,0.52,-0.6,-0.6544984694978736,-0.5835944686356039,0.631591023065448
2025-02-10 16:06:22.043910,-0.22,-0.37,0.07,-0.1505346479845109,-0.3937899124812206,1.0581058590215622
2025-02-10 16:06:22.103809,-0.63,-1.43,-0.68,-0.30325095753401476,-0.3665191429188092,0.8104872713948668
2025-02-10 16:06:22.163963,-0.75,-2.08,-0.75,-0.4308781590861001,-0.35561083509384467,0.7068583470577035
2025-02-10 16:06:22.223715,-0.37,-1.33,-0.56,0.49414634447089456,-0.3785182815262702,0.6828600698427815
2025-02-10 16:06:22.284015,0.61,-1.6,-0.41000000000000003,0.4276056667386107,-0.3861540970037454,0.5126904677733343
2025-02-10 16:06:22.342577,-0.08,-2.21,0.11,-0.23452861823673804,-0.01090830782496456,0.33488505022641196
2025-02-10 16:06:22.400927,-0.7000000000000001,1.69,1.92,0.5301437602932776,-0.16689710972195776,-2.5798148006041184
2025-02-10 16:06:22.460196,1.92,1.04,-0.03,0.7712173632249943,-0.6752242543653062,0.7155849933176751
2025-02-10 16:06:22.519785,-0.9400000000000001,-0.8200000000000001,-0.04,0.26070855701665296,-0.2912518189265537,0.9981101659842572
2025-02-10 16:06:22.579895,-0.43,-1.92,-1.3,-1.7049685130419607,-0.2203478180642841,0.3937899124812206
2025-02-10 16:06:22.637971,0.1,0.23,0.99,0.7450374244450795,-0.6850417314077744,-0.8432121948697605
2025-02-10 16:06:22.696251,0.28,0.7000000000000001,-1.56,-0.014180800172453928,-0.7494007475750653,-0.23452861823673804
2025-02-10 16:06:22.754472,0.04,0.6900000000000001,-1.67,-0.3523383427463553,-0.3839724354387525,0.10362892433716332
2025-02-10 16:06:22.814298,0.68,-0.8300000000000001,-1.3,-0.11235557059713497,-0.025089107997418487,0.5617778529856748
2025-02-10 16:06:22.873953,1.86,-1.19,-0.14,0.07308566242726255,0.19416787928436915,0.4134248665661568
2025-02-10 16:06:22.934220,-0.19,-0.08,0.15,-0.1439896632895322,0.16907877128695067,-0.011999138607461015
2025-02-10 16:06:22.992433,-0.74,-0.19,-0.16,-0.3436116964863836,0.12435470920459599,0.19525871006686563
2025-02-10 16:06:23.050546,-0.11,-1.42,-0.03,0.1636246173744684,0.018544123302439753,0.39269908169872414
2025-02-10 16:06:23.110134,0.26,-0.8300000000000001,-0.1,0.3959715740462135,-0.05672320068981571,-0.006544984694978736
2025-02-10 16:06:23.169527,-0.08,-0.8200000000000001,-0.26,0.6228643768054763,-0.20943951023931956,0.19525871006686563
2025-02-10 16:06:23.229088,0.53,0.12,0.34,-0.016362461737446838,-0.21925698728178766,-0.34579335805137656
2025-02-10 16:06:23.288488,1.71,1.06,0.44,0.09817477042468103,-0.16035212502697901,0.03490658503988659
2025-02-10 16:06:23.346584,0.09,0.74,-0.01,0.6457718232379019,-0.2650718801466388,-0.10253809355466686
2025-02-10 16:06:23.404808,-0.2,-0.08,-0.73,0.02181661564992912,-0.6108652381980153,0.15926129424448257
2025-02-10 16:06:23.464798,1.21,-1.08,-0.31,-0.7668540400950086,-0.3839724354387525,-0.0916297857297023
2025-02-10 16:06:23.524904,0.42,-0.1,0.25,-0.7570365630525404,-0.0272707695624114,-0.45705809786601503
2025-02-10 16:06:23.584885,-0.71,-0.04,-1.17,0.34797501961636945,-0.05345070834232634,1.5871587885323435
2025-02-10 16:06:23.642868,-0.78,-1.58,0.8300000000000001,1.189005552921137,-0.2814343418840856,1.5533430342749532
2025-02-10 16:06:23.700988,-0.42,-0.87,0.73,-0.20398535632683726,0.08944812416470939,-0.25743606466916363
2025-02-10 16:06:23.759383,0.15,-0.14,0.14,-1.5937037732273223,0.4723297288209654,0.032724923474893676
2025-02-10 16:06:23.819506,-0.13,-1.16,-0.11,0.9173886880795195,-0.17562375598192942,0.7864889941799448
2025-02-10 16:06:23.879358,-0.14,-0.8300000000000001,0.86,-0.06326818538479445,0.019634954084936207,0.06435901616729091
2025-02-10 16:06:23.939228,1.4000000000000001,-0.17,-0.27,0.3392483733563978,-0.11999138607461016,-0.4723297288209654
2025-02-10 16:06:23.997299,0.32,-0.48,-0.63,-0.8137597637423561,-0.05235987755982989,0.14944381720201447
2025-02-10 16:06:24.055415,0.06,-0.71,0.9400000000000001,0.8617563181722002,-0.30652344988150415,0.1538071403320003
2025-02-10 16:06:24.114361,-0.23,0.11,0.8200000000000001,0.8792096106921435,-0.3337942194439155,-0.3294308963139297
2025-02-10 16:06:24.173989,0.44,0.04,0.5,-1.0112001353742146,-0.16253378659197193,-0.20289452554434081
2025-02-10 16:06:24.233545,0.28,0.01,-0.39,-0.16689710972195776,-0.07308566242726255,0.421060682043632
2025-02-10 16:06:24.293185,-0.24,-0.21,-0.23,0.01090830782496456,-0.41560652813114973,0.47451139038595835
2025-02-10 16:06:24.351342,0.17,-0.25,-0.91,-1.5347989109725135,0.2825251726665821,-0.48432886742842646
2025-02-10 16:06:24.409449,0.1,-0.74,-0.76,0.030543261909900768,-0.020725784867432664,0.14180800172453928
2025-02-10 16:06:24.469101,-0.23,-0.28,0.46,0.9293878266869805,-0.20398535632683726,-0.019634954084936207
2025-02-10 16:06:24.528510,0.49,-1.11,-0.66,-1.1126473981463851,-0.11235557059713497,-0.13744467859455345
2025-02-10 16:06:24.587836,0.23,-0.37,-1.51,0.519235452468313,0.10253809355466686,-0.595593607243065
2025-02-10 16:06:24.647217,0.22,-0.14,-0.6900000000000001,-0.1505346479845109,0.5039638215133626,-0.20616701789183017
2025-02-10 16:06:24.705362,-0.5700000000000001,0.93,1.03,1.3580843242080878,0.18980455615438332,0.09381144729469522
2025-02-10 16:06:24.763534,-0.1,0.51,0.64,-0.31525009614147576,0.16253378659197193,0.009817477042468103
2025-02-10 16:06:24.823395,0.58,-0.33,0.42,-0.5497787143782138,-0.02181661564992912,0.16253378659197193
2025-02-10 16:06:24.883580,0.32,-0.6900000000000001,-0.49,0.020725784867432664,0.19744037163185854,-0.22471114119426994
2025-02-10 16:06:24.943956,-0.21,-1.01,-0.44,0.2923426497090502,0.2476185876266955,-0.19962203319685143
2025-02-10 16:06:25.002049,0.19,-0.68,0.27,0.37960911230876665,0.26616271092913524,-0.32506757318394386
2025-02-10 16:06:25.060280,0.22,0.03,-0.21,-0.14289883250703572,-0.2716168648416175,0.3010692959690218
2025-02-10 16:06:25.119281,-0.08,0.11,1.43,0.2530727415391778,-0.15707963267948966,-1.014472627721704
2025-02-10 16:06:25.179240,0.3,0.1,-0.93,-1.559888018969932,-0.05890486225480862,0.27598018797160334
2025-02-10 16:06:25.238920,-0.07,-0.27,0.15,-0.17562375598192942,-0.1461713248545251,0.48323803664593
2025-02-10 16:06:25.298855,-0.03,-0.52,-0.35000000000000003,-0.4036073895236887,-0.06217735460229799,-1.1137382289288815
2025-02-10 16:06:25.357084,0.5,-0.44,-0.8,-0.667588438887831,0.25634523388666713,-0.6108652381980153
2025-02-10 16:06:25.416171,-0.22,-0.61,0.06,0.6021385919380436,0.05890486225480862,0.20289452554434081
2025-02-10 16:06:25.477047,-0.19,0.03,0.73,-0.5159629601208237,0.013089969389957472,0.6141377305455047
2025-02-10 16:06:25.537152,0.27,-0.24,0.55,0.4112432050011639,0.015271630954950384,0.3523383427463553
2025-02-10 16:06:25.597333,0.65,0.35000000000000003,0.55,1.44971410993779,-0.031634092692397225,-0.15162547876700738
2025-02-10 16:06:25.655407,0.6900000000000001,0.02,-0.09,-0.25416357232167425,-0.02399827721492203,-0.5105088062083414
2025-02-10 16:06:25.714706,0.13,-0.58,-1.05,-0.37960911230876665,-0.19853120241435498,0.4930555136883981
2025-02-10 16:06:25.774483,-0.33,-0.5,-0.09,0.9053895494720584,-0.41233403578366035,0.6795875774952921
2025-02-10 16:06:25.834511,0.21,1.79,2.05,-0.7264933011426397,0.08399397025222712,-0.20725784867432664
2025-02-10 16:06:25.894359,0.18,-0.33,-0.31,0.6741334235828098,-0.39051742013373125,0.08072147790473774
2025-02-10 16:06:25.953832,0.33,-1.2,-1.6500000000000001,-1.040652566501619,0.19634954084936207,0.1930770485018727
2025-02-10 16:06:26.012865,-0.09,0.27,0.03,0.918479518862016,0.031634092692397225,0.02181661564992912
2025-02-10 16:06:26.071978,0.18,-0.11,0.6,-1.3700834628155487,0.4908738521234052,-0.36760997370130566
2025-02-10 16:06:26.132598,-0.01,-0.24,0.6900000000000001,1.2849986617808251,0.03490658503988659,-0.12217304763960307
2025-02-10 16:06:26.193380,-0.36,-0.49,-0.66,0.020725784867432664,0.0272707695624114,0.21598449493429828
2025-02-10 16:06:26.253710,0.15,-1.34,0.06,-0.09817477042468103,-0.13962634015954636,-0.3948807432637171
2025-02-10 16:06:26.311880,-0.25,0.17,-0.86,-0.9610219193793778,0.23234695667174513,-0.25089107997418486
2025-02-10 16:06:26.370044,0.08,-0.17,-0.26,-0.7057675162752071,0.27052603405912107,0.03381575425739013
2025-02-10 16:06:26.430443,-0.3,0.26,0.6,0.26070855701665296,0.026179938779914945,-0.07090400086226964
2025-02-10 16:06:26.491420,-0.27,0.52,0.66,-0.04799655442984406,0.030543261909900768,-0.6828600698427815
2025-02-10 16:06:26.551227,1.3800000000000001,-0.6900000000000001,1.24,-0.15926129424448257,-0.26725354171163174,-1.5893404500973363
2025-02-10 16:06:26.609595,0.07,0.32,0.18,-0.3916082509162277,-0.3937899124812206,0.22689280275926285
2025-02-10 16:06:26.667848,0.93,0.3,0.16,-1.4824390334126836,0.433059820651093,0.9653852425093635
2025-02-10 16:06:26.725928,-0.25,0.62,-0.45,0.3839724354387525,-0.17998707911191522,0.519235452468313
2025-02-10 16:06:26.785956,-0.43,0.1,-1.95,-0.4428772976935611,0.4788747135159442,-0.006544984694978736
2025-02-10 16:06:26.846782,0.3,-1.09,-0.1,0.10581058590215622,0.17889624832941878,1.4191708480278893
2025-02-10 16:06:26.906999,-0.62,-0.34,0.33,0.9162978572970231,0.3523383427463553,0.7144941625351786
2025-02-10 16:06:26.965231,0.19,0.04,-0.01,-1.2555462306534209,0.5050546522958591,0.07308566242726255
2025-02-10 16:06:27.023294,0.25,-0.24,0.43,0.5770494839406252,-0.09053895494720585,1.0057459814617324
2025-02-10 16:06:27.083026,-0.36,-1.26,2.05,4.605487563700037,-1.9056813770213086,0.7875798249624412
2025-02-10 16:06:27.143461,-0.66,-0.19,-0.24,-2.7478027411085724,-0.5465062220307244,0.04581489286485115
2025-02-10 16:06:27.204308,0.22,-1.5,0.64,3.3433963483516376,-2.636538001293934,0.4385139745635753
2025-02-10 16:06:27.263005,-0.18,0.43,-1.36,0.459239759431008,-1.5609788497524284,1.538071403320003
2025-02-10 16:06:27.321263,-0.11,0.08,0.97,1.526072264712542,-2.011491962923465,0.6850417314077744
2025-02-10 16:06:27.379515,0.26,-0.31,-1.71,-0.21380283336930536,-0.990474350506782,1.32972272386318
2025-02-10 16:06:27.439342,0.0,0.19,-0.01,1.8544123302439752,-1.22500296874352,0.49741883681838395
2025-02-10 16:06:27.499280,-0.46,-0.7000000000000001,-2.2,0.5279620987282847,-0.5519603759432067,1.203186353093591
2025-02-10 16:06:27.560444,1.16,1.77,1.2,0.7483099167925688,-0.9217520112095053,0.5115996369908379
2025-02-10 16:06:27.618970,0.42,-0.63,0.06,2.746711910326076,-1.3057244466482578,0.5563236990731926
2025-02-10 16:06:27.677132,0.46,-1.54,-0.93,-1.040652566501619,-0.001090830782496456,0.3916082509162277
2025-02-10 16:06:27.736701,-0.18,-0.9400000000000001,1.3800000000000001,4.001167310197,-0.5246896063807953,0.791943148092427
2025-02-10 16:06:27.796300,6.79,0.02,-5.92,5.30034677215028,-2.083486794568231,-2.0365810709208834
2025-02-10 16:06:27.857295,0.93,0.17,1.84,-0.2552544031041707,-0.17453292519943295,0.028361600344907856
2025-02-10 16:06:27.916710,0.93,-0.61,-0.81,-1.3908092476829814,-0.10799224746714914,-0.3043417883165112
2025-02-10 16:06:27.974890,1.3,1.19,0.13,0.9217520112095053,-0.37960911230876665,-0.20507618710933373
2025-02-10 16:06:28.033219,-1.75,-1.54,-0.78,5.858852132788465,-2.1467549799530254,-0.1734420944169365
2025-02-10 16:06:28.093338,1.32,-0.91,-2.17,-5.121450523820861,1.1835513990086548,0.2650718801466388
2025-02-10 16:06:28.153817,0.47000000000000003,-0.63,1.48,3.3270338866141906,-2.251474735072685,-0.2901609881440573
2025-02-10 16:06:28.214741,-1.19,-0.17,-0.24,2.059488517353309,-0.6032294227205401,-0.13744467859455345
2025-02-10 16:06:28.274881,0.77,-0.92,-0.53,-2.1696624263854507,0.5137812985558308,-0.23452861823673804
2025-02-10 16:06:28.333002,0.02,-1.35,-1.12,1.4868023565426696,-0.49414634447089456,-0.2901609881440573
2025-02-10 16:06:28.393067,0.32,0.5,1.6400000000000001,-1.040652566501619,0.23343778745424157,-0.34033920413889424
2025-02-10 16:06:28.453800,-0.07,0.34,-0.15,3.163409269239722,-0.7254024703601433,0.13308135546456762
2025-02-10 16:06:28.514948,1.36,-0.56,0.45,-1.2675453692608818,0.7494007475750653,-0.10144726277217041
2025-02-10 16:06:28.574139,-0.58,-2.25,-1.72,1.0330167510241437,0.2977968036215325,-0.18762289458939044
2025-02-10 16:06:28.632705,0.25,0.38,1.7,0.9992009967667537,-0.6566801310628665,-0.2912518189265537
2025-02-10 16:06:28.692102,0.71,-0.97,-2.12,0.09599310885968812,0.08726646259971647,-0.050178215994836975
2025-02-10 16:06:28.751764,0.48,-0.47000000000000003,-0.19,-0.2181661564992912,-0.1505346479845109,0.04145156973486533
2025-02-10 16:06:28.811231,-0.72,-1.55,-1.09,-5.724679946541401,-3.2234049622770273,1.160643952576229
2025-02-10 16:06:28.870581,-0.23,0.0,-0.53,2.6736262478988135,-0.5006913291658733,-1.9405879620611952
2025-02-10 16:06:28.928840,-0.79,-3.06,2.0100000000000002,-0.48651052899341934,0.050178215994836975,1.054833366674073
2025-02-10 16:06:28.987300,0.91,-4.11,-12.950000000000001,-4.595670086657569,2.873248281095665,-1.7136951593019323
2025-02-10 16:06:29.047285,0.47000000000000003,-3.25,1.12,-0.7853981633974483,-0.31306843457648287,-1.2904528156933075
2025-02-10 16:06:29.107418,-0.4,-0.23,-1.8900000000000001,1.241365430480967,0.32288591161895097,-0.3959715740462135
2025-02-10 16:06:29.168529,4.8100000000000005,-1.48,0.56,-2.222022303945281,1.2588187230009102,0.533416252640767
2025-02-10 16:06:29.227633,-0.45,-2.93,-0.01,3.885539247252376,1.3340860469931657,1.1126473981463851
2025-02-10 16:06:29.285779,1.24,0.74,0.16,-2.2809271662000894,-0.6948592084502424,-0.7810348402674625
2025-02-10 16:06:29.345210,-0.98,-2.18,-0.5700000000000001,0.34470252726888007,-0.5628686837681712,-1.748601744341819
2025-02-10 16:06:29.405381,-0.48,-2.04,-1.84,0.8050331174823845,-0.9152070265145266,0.9206611804270088
2025-02-10 16:06:29.465217,1.3900000000000001,2.19,0.12,-0.10581058590215622,1.1955505376161157,-0.4286964975211072
2025-02-10 16:06:29.524427,1.42,0.09,-3.36,0.25416357232167425,-1.227184630308513,-1.0177451200691934
2025-02-10 16:06:29.583421,-1.82,-5.75,-6.0,2.4740042147019623,-3.873540108644915,-1.0133817969392076
2025-02-10 16:06:29.642300,-0.56,-2.0100000000000002,-2.5100000000000002,2.7445302487610834,-0.31634092692397225,1.0428342280666119
2025-02-10 16:06:29.702351,1.01,-2.19,-0.77,2.2623830428976497,-0.07635815477475191,0.5006913291658733
2025-02-10 16:06:29.762533,-0.24,0.2,-0.25,4.6305766716974555,2.3147429204574794,2.7903451416259344
2025-02-10 16:06:29.822687,-0.98,1.1500000000000001,-1.6,1.6689710972195777,2.1085759025656494,-1.0722866591940161
2025-02-10 16:06:29.881765,-0.26,0.38,-0.72,2.586359785299097,1.1486448139687682,-0.11671889372712078
2025-02-10 16:06:29.940680,-0.06,0.52,-0.81,0.16471544815696484,0.32506757318394386,-1.0101093045917182
2025-02-10 16:06:30.000218,1.75,-0.21,0.58,0.07853981633974483,0.1439896632895322,-0.4079707126536745
2025-02-10 16:06:30.060037,-5.17,-4.4,1.17,-2.2907446432425576,-2.1903882112528836,-1.562069680534925
2025-02-10 16:06:30.119523,-0.41000000000000003,0.24,-0.22,0.11562806294462433,-1.6493361431346414,-0.01090830782496456
2025-02-10 16:06:30.178528,2.85,1.68,-0.1,-2.284199658547579,-0.7341291166201148,-1.31117860056074
2025-02-10 16:06:30.236879,0.45,-0.52,1.16,-0.9948376736367679,0.7057675162752071,-0.45814892864851153
2025-02-10 16:06:30.295316,0.8300000000000001,0.2,-1.23,-1.8249598991165707,0.4886921905584123,0.37742745074377376
2025-02-10 16:06:30.356203,3.09,-1.18,0.46,-0.09599310885968812,2.4270984910546147,-0.964294411726867
2025-02-10 16:06:30.416387,-2.16,0.64,-0.56,-0.4068798818711781,0.6686792696703275,0.892299580082101
2025-02-10 16:06:30.476494,-1.31,-2.61,4.73,4.5891251019625905,3.907355862902305,0.08835729338221293
2025-02-10 16:06:30.534483,-0.29,-0.4,0.5,-0.2203478180642841,0.5966844380255614,0.32615840396644036
2025-02-10 16:06:30.593461,0.24,-0.65,-0.07,-0.21925698728178766,0.3370667117914049,0.038179077387375956
2025-02-10 16:06:30.653324,0.34,-1.01,-0.7000000000000001,0.9893835197242855,-0.31306843457648287,-0.37306412761378793
2025-02-10 16:06:30.713206,0.41000000000000003,1.1500000000000001,-0.68,0.03490658503988659,-0.1461713248545251,-0.3370667117914049
2025-02-10 16:06:30.772625,0.33,-0.33,1.07,0.7908523173099306,0.015271630954950384,-0.07853981633974483
2025-02-10 16:06:30.831890,0.58,-0.45,0.0,0.10799224746714914,0.11453723216212788,0.19416787928436915
2025-02-10 16:06:30.890942,0.02,-1.0,0.17,-0.05890486225480862,-0.14180800172453928,0.03599741582238305
2025-02-10 16:06:30.950135,0.4,-0.41000000000000003,-0.11,0.18871372537188688,-0.11126473981463851,-0.01090830782496456
2025-02-10 16:06:31.009139,0.18,-0.6900000000000001,-0.06,0.13526301702956053,-0.05999569303730508,-0.1189005552921137
2025-02-10 16:06:31.069231,0.41000000000000003,-0.07,-0.07,0.16907877128695067,-0.11562806294462433,-0.06435901616729091
2025-02-10 16:06:31.129143,0.44,-0.15,-0.03,0.1265363707695889,-0.05890486225480862,0.017453292519943295
2025-02-10 16:06:31.187941,0.6,-0.03,-0.12,0.02399827721492203,-0.1189005552921137,0.031634092692397225
2025-02-10 16:06:31.246860,0.51,-0.25,-0.05,-0.06654067773228381,-0.08726646259971647,0.24980024919168842
2025-02-10 16:06:31.305845,0.04,-0.4,-0.01,-0.12980886311707826,-0.026179938779914945,0.23452861823673804
2025-02-10 16:06:31.365548,-0.28,-0.55,0.11,-0.3534291735288517,0.11344640137963143,0.2378011105842274
2025-02-10 16:06:31.425166,-0.19,-0.26,0.5,-0.17453292519943295,0.10799224746714914,-0.014180800172453928
2025-02-10 16:06:31.484458,1.67,-0.35000000000000003,0.01,-0.08290313946973066,-0.0272707695624114,-0.14835298641951802
2025-02-10 16:06:31.542690,0.54,-0.06,-0.35000000000000003,-0.1559888018969932,0.01090830782496456,-0.09053895494720585
2025-02-10 16:06:31.601797,0.89,-0.08,-0.68,-0.11671889372712078,0.006544984694978736,-0.05999569303730508
2025-02-10 16:06:31.662219,0.61,-0.23,-0.16,0.05781403147231216,0.02945243112740431,0.1505346479845109
2025-02-10 16:06:31.722476,0.18,-0.49,0.05,0.03381575425739013,-0.06872233929727672,0.136353847812057
2025-02-10 16:06:31.782748,-0.06,-0.79,0.18,0.038179077387375956,-0.050178215994836975,0.07417649320975901
2025-02-10 16:06:31.840824,0.13,-0.43,-0.44,-0.08944812416470939,-0.11126473981463851,-0.05890486225480862
2025-02-10 16:06:31.899962,0.8200000000000001,0.01,-0.54,0.0916297857297023,-0.23343778745424157,-0.06872233929727672
2025-02-10 16:06:31.959577,0.17,0.15,0.52,-0.007635815477475192,-0.037088246604879506,0.13526301702956053
2025-02-10 16:06:32.019392,-0.49,-0.5700000000000001,0.72,0.032724923474893676,-0.006544984694978736,0.009817477042468103
2025-02-10 16:06:32.079310,-0.46,0.13,-0.1,0.0916297857297023,-0.18762289458939044,0.0545415391248228
2025-02-10 16:06:32.139234,0.37,0.14,0.0,0.044724062082354694,-0.210530341021816,0.4886921905584123
2025-02-10 16:06:32.198189,-0.21,-0.68,0.45,-0.04363323129985824,-0.2519819107566813,0.19853120241435498
2025-02-10 16:06:32.256612,-0.13,-0.62,-0.51,0.1407171709420428,-0.4526947747360292,-0.04145156973486533
2025-02-10 16:06:32.315966,1.4000000000000001,-0.11,-0.33,0.25634523388666713,-0.23561944901923448,-0.2007128639793479
2025-02-10 16:06:32.375673,1.61,0.23,0.03,0.1407171709420428,-0.19962203319685143,-0.12980886311707826
2025-02-10 16:06:32.436818,-0.06,-0.12,0.5700000000000001,0.15817046346198613,0.24652775684419906,0.04363323129985824
2025-02-10 16:06:32.494851,0.41000000000000003,0.37,0.15,0.10799224746714914,0.3239767424014474,-0.07417649320975901
2025-02-10 16:06:32.553117,0.06,-0.45,0.46,-0.04363323129985824,0.008726646259971648,0.17671458676442586
2025-02-10 16:06:32.612431,-0.28,-0.71,0.29,0.1090830782496456,0.019634954084936207,0.10144726277217041
2025-02-10 16:06:32.673551,0.21,0.25,-0.21,0.06217735460229799,0.10144726277217041,0.07308566242726255
2025-02-10 16:06:32.732524,0.07,0.38,-0.1,-0.15489797111449674,0.06981317007977318,0.0818123086872342
2025-02-10 16:06:32.791872,-0.29,-0.12,0.53,-0.08399397025222712,0.22362031041177347,0.026179938779914945
2025-02-10 16:06:32.849364,-0.09,-0.51,0.33,0.19853120241435498,-0.0272707695624114,-0.028361600344907856
2025-02-10 16:06:32.907390,0.06,-0.15,-0.04,0.19525871006686563,-0.17016960206944712,-0.04581489286485115
2025-02-10 16:06:32.966624,-0.26,0.14,0.34,-0.05890486225480862,0.039269908169872414,0.12980886311707826
2025-02-10 16:06:33.026093,-0.17,-0.44,-0.02,0.10581058590215622,-0.15162547876700738,0.09817477042468103
2025-02-10 16:06:33.085284,-0.13,0.0,0.2,0.24980024919168842,-0.04254240051736178,-0.06217735460229799
2025-02-10 16:06:33.144815,-0.34,-0.79,0.32,0.1407171709420428,-0.09272061651219876,-0.011999138607461015
2025-02-10 16:06:33.202851,0.15,0.29,0.18,0.22471114119426994,-0.26725354171163174,-0.14726215563702155
2025-02-10 16:06:33.261077,0.4,0.9500000000000001,0.28,0.07635815477475191,-0.09817477042468103,0.02399827721492203
2025-02-10 16:06:33.321696,0.01,0.23,0.16,-0.09053895494720585,0.1341721862470641,0.21707532571679475
2025-02-10 16:06:33.382471,0.16,-0.43,0.15,0.00545415391248228,-0.0719948316447661,0.20289452554434081
2025-02-10 16:06:33.442540,-0.16,-0.46,-0.03,-0.020725784867432664,-0.1832595714594046,-0.10035643198967395
2025-02-10 16:06:33.500590,0.02,-0.16,0.28,-0.017453292519943295,-0.08617563181722002,-0.11780972450961724
2025-02-10 16:06:33.558729,0.89,0.25,-0.17,0.08726646259971647,-0.08399397025222712,0.1090830782496456
2025-02-10 16:06:33.617197,0.74,-0.02,0.42,0.07417649320975901,0.2617993877991494,0.18980455615438332
2025-02-10 16:06:33.676794,1.42,0.16,-0.05,0.15489797111449674,0.4526947747360292,0.1636246173744684
2025-02-10 16:06:33.737741,0.5,0.23,0.01,-0.42542400517361784,0.2912518189265537,0.3981532356112064
2025-02-10 16:06:33.798451,-0.28,-0.38,0.35000000000000003,-0.04581489286485115,0.1559888018969932,0.15926129424448257
2025-02-10 16:06:33.856542,-0.04,-0.47000000000000003,-0.66,0.12217304763960307,0.017453292519943295,0.1189005552921137
2025-02-10 16:06:33.914347,-0.8300000000000001,-0.68,0.41000000000000003,0.16798794050445423,0.29888763440402893,0.06544984694978735
2025-02-10 16:06:33.973689,1.71,0.49,0.5700000000000001,0.19853120241435498,0.4188790204786391,0.02399827721492203
2025-02-10 16:06:34.033744,0.8,0.59,0.3,-0.3436116964863836,0.44178646691106466,0.2454369260617026
2025-02-10 16:06:34.093137,0.6900000000000001,0.49,0.04,-0.8617563181722002,0.3436116964863836,0.3763366199612773
2025-02-10 16:06:34.152569,-0.5,0.14,0.51,-0.9053895494720584,-0.04799655442984406,0.3883357585687383
2025-02-10 16:06:34.210883,-1.1,-0.92,0.65,-0.9479319499894202,-0.09381144729469522,0.33052172709642613
2025-02-10 16:06:34.269511,-0.46,-0.93,0.0,-0.6217735460229799,-0.08726646259971647,0.39924406639370286
2025-02-10 16:06:34.329906,0.84,0.59,0.19,-0.5726861608106394,0.1308996938995747,0.6424993308904126
2025-02-10 16:06:34.390206,0.51,-0.53,1.71,-1.0264717663291651,0.8792096106921435,0.7254024703601433
2025-02-10 16:06:34.450665,-0.15,-0.65,0.09,-0.7952156404399164,0.9217520112095053,0.28579766501407144
2025-02-10 16:06:34.509706,3.12,-0.07,-2.12,-1.246819584393449,0.7548549014875475,0.4636030825609938
2025-02-10 16:06:34.568317,0.16,0.1,-1.0,-0.006544984694978736,0.3425208657038872,0.46687557490848314
2025-02-10 16:06:34.628508,0.02,-0.21,0.54,-0.9588402578143848,0.5094179754258449,0.27598018797160334
2025-02-10 16:06:34.688951,0.72,-0.02,0.54,-0.6457718232379019,0.34579335805137656,0.4046982203061852
2025-02-10 16:06:34.749047,0.44,-0.7000000000000001,0.21,-0.4701480672559725,0.5203262832508095,0.34797501961636945
2025-02-10 16:06:34.807396,0.68,-0.26,-0.74,-0.6883142237552637,0.6904958853202566,0.2694352032766246
2025-02-10 16:06:34.865726,-0.78,-2.13,-0.54,-1.0210176124166828,0.35779249665883756,-0.7875798249624412
2025-02-10 16:06:34.924246,-1.6,-2.49,2.5,-0.47778388273344774,0.2279836335417593,-0.43524148221608594
2025-02-10 16:06:34.984384,1.1300000000000001,0.89,-0.77,-0.23452861823673804,0.08944812416470939,-0.31306843457648287
2025-02-10 16:06:35.044255,-0.01,-0.68,-0.29,-0.6348635154129374,0.12980886311707826,-0.22907446432425577
2025-02-10 16:06:35.104376,0.5700000000000001,0.23,-1.52,-0.9064803802545549,-0.210530341021816,-0.507236313860852
2025-02-10 16:06:35.162910,-0.49,-0.55,1.34,-0.17889624832941878,-0.10253809355466686,-0.22471114119426994
2025-02-10 16:06:35.221324,-0.12,-0.1,1.54,0.25416357232167425,0.1930770485018727,-0.38942658935123475
2025-02-10 16:06:35.281117,0.24,0.49,0.42,0.2628902185816459,-0.11453723216212788,-0.38942658935123475
2025-02-10 16:06:35.340887,0.0,-0.24,0.25,-0.2279836335417593,-0.11453723216212788,-0.3010692959690218
2025-02-10 16:06:35.400724,0.68,-0.05,-0.8,-0.4177881896961426,0.14835298641951802,0.07635815477475191
2025-02-10 16:06:35.459521,-0.17,0.33,-0.23,-0.6915867161027531,0.5530512067257032,0.4265148359561143
2025-02-10 16:06:35.517657,0.48,-1.53,2.33,-0.5225079448158024,0.3817907738737596,0.11453723216212788
2025-02-10 16:06:35.575796,0.24,0.79,0.13,0.9152070265145266,0.4701480672559725,0.1265363707695889
2025-02-10 16:06:35.635864,-0.85,-0.63,1.1400000000000001,0.7221299780126539,0.3021601267515183,-0.04363323129985824
2025-02-10 16:06:35.696146,0.12,-0.8,-0.84,1.6580627893946132,1.076649982324002,-0.7221299780126539
2025-02-10 16:06:35.756238,2.2800000000000002,-0.37,1.95,0.8835729338221293,1.1202832136238603,-0.4428772976935611
2025-02-10 16:06:35.814683,1.08,-0.54,-0.12,0.5945027764605685,0.5705044992456465,-0.23671027980173096
2025-02-10 16:06:35.873063,0.48,0.02,0.51,-0.07963064712224129,0.6784967467127956,-0.20507618710933373
2025-02-10 16:06:35.932110,0.28,-0.81,0.13,-0.4930555136883981,0.7952156404399164,-0.3741549583962844
2025-02-10 16:06:35.992063,0.56,0.39,0.31,-0.7712173632249943,0.9675669040743564,0.36760997370130566
2025-02-10 16:06:36.051820,0.27,-0.48,0.42,-0.7057675162752071,0.729765793490129,-0.10035643198967395
2025-02-10 16:06:36.111531,0.03,-0.31,0.46,-0.693768377667746,0.6566801310628665,0.08399397025222712
2025-02-10 16:06:36.170183,0.44,0.16,-0.07,-0.5105088062083414,0.5366887449882564,0.31852258848896514
2025-02-10 16:06:36.228493,-0.79,0.7000000000000001,1.54,-0.6861325621902709,-0.08290313946973066,-0.13962634015954636
2025-02-10 16:06:36.288424,-0.38,-2.14,-0.47000000000000003,-0.5617778529856748,0.23889194136672387,0.18216874067690814
2025-02-10 16:06:36.348622,-0.6,-1.43,-0.79,0.5770494839406252,-0.8181230868723419,0.27379852640661045
2025-02-10 16:06:36.409036,0.47000000000000003,-0.88,-0.28,0.028361600344907856,-1.9907661780560322,1.1202832136238603
2025-02-10 16:06:36.467396,0.71,1.45,-1.32,0.5246896063807953,-1.4660765716752369,0.050178215994836975
2025-02-10 16:06:36.525940,0.63,-0.81,-1.41,-0.4265148359561143,-0.7155849933176751,-0.44724062082354693
2025-02-10 16:06:36.586164,0.97,-0.42,0.42,-0.6501351463678877,-0.19525871006686563,-0.3239767424014474
2025-02-10 16:06:36.646629,0.06,0.88,-0.19,-0.2279836335417593,-0.6086835766330224,-0.878118779909647
2025-02-10 16:06:36.706961,-0.9400000000000001,0.07,1.49,-0.495237175253391,-0.7057675162752071,-0.2628902185816459
2025-02-10 16:06:36.766216,0.47000000000000003,0.14,-0.56,-0.5901394533305827,-1.0133817969392076,-0.23671027980173096
2025-02-10 16:06:36.824446,0.53,-0.72,0.67,-0.5530512067257032,-0.8104872713948668,0.2279836335417593
2025-02-10 16:06:36.882735,-1.86,-0.21,0.56,-0.3097959422289935,-0.6479534848028948,0.3785182815262702
2025-02-10 16:06:36.942712,0.44,-0.7000000000000001,0.44,0.3370667117914049,0.18653206380689397,0.6250460383704692
2025-02-10 16:06:37.002664,-1.07,-1.02,-0.18,0.4537856055185257,0.31852258848896514,-0.13744467859455345
2025-02-10 16:06:37.062790,0.0,0.13,0.99,0.41996985126113556,-0.037088246604879506,0.09490227807719166
2025-02-10 16:06:37.120783,0.07,-0.4,0.61,0.8268497331323136,-0.4166973589136462,0.31634092692397225
2025-02-10 16:06:37.179025,-0.48,-0.38,0.18,1.6384278353096768,-0.17889624832941878,0.4636030825609938
2025-02-10 16:06:37.237194,-0.31,-2.13,1.06,0.037088246604879506,0.022907446432425576,-0.13308135546456762
2025-02-10 16:06:37.296992,-0.43,0.22,0.3,0.8083056098298739,-0.9490227807719167,-0.5552328682906961
2025-02-10 16:06:37.356719,1.8900000000000001,-0.32,1.12,0.4385139745635753,-0.6850417314077744,-0.6621342849753488
2025-02-10 16:06:37.417687,0.67,0.64,0.59,0.4232423436086249,-0.14180800172453928,-0.4559672670835186
2025-02-10 16:06:37.476810,2.09,0.44,0.76,-0.4908738521234052,0.13744467859455345,-0.23452861823673804
2025-02-10 16:06:37.535101,-0.26,0.12,1.18,-1.0831949670189809,0.4930555136883981,-0.2977968036215325
2025-02-10 16:06:37.595094,0.12,-0.52,-0.56,-0.39051742013373125,-0.4625122517784973,-0.5857761302005968
2025-02-10 16:06:37.655169,-1.94,-1.16,-1.3,0.6163193921104976,-1.0570150282390658,-0.5246896063807953
2025-02-10 16:06:37.715835,-1.35,-1.48,0.63,0.533416252640767,-0.28579766501407144,-0.3392483733563978
2025-02-10 16:06:37.773944,-0.43,-2.25,1.4000000000000001,0.8072147790473774,-0.06981317007977318,0.23671027980173096
2025-02-10 16:06:37.832119,0.5700000000000001,-1.62,-1.48,-1.1955505376161157,0.7635815477475192,3.930263309334731
2025-02-10 16:06:37.890226,-3.21,-3.41,0.27,1.0995574287564276,2.8165250804058495,1.1399181677087964
2025-02-10 16:06:37.949911,-0.5700000000000001,2.1,-0.26,-3.7524578917878086,1.9176805156287695,-0.7657632093125121
2025-02-10 16:06:38.010243,-1.23,0.13,1.42,-0.28579766501407144,-2.073669317525763,-1.3231777391682011
2025-02-10 16:06:38.070545,-0.54,-1.29,1.86,-1.538071403320003,-0.9577494270318884,-1.1442814908387824
2025-02-10 16:06:38.129577,9.13,13.23,13.23,20.318904985561485,-5.237078586765485,-7.887797388231873
2025-02-10 16:06:38.188593,0.53,4.25,5.26,18.065248588923808,-7.2365714110814885,-6.009386780772976
2025-02-10 16:06:38.248761,1.22,3.92,4.14,-5.150902954948265,0.9228428419920017,1.6384278353096768
2025-02-10 16:06:38.308828,2.72,2.5100000000000002,0.96,-4.134248665661568,3.611740720845766,0.1505346479845109
2025-02-10 16:06:38.368868,-8.63,6.63,-7.890000000000001,-0.7821256710499589,-0.39924406639370286,-0.3097959422289935
2025-02-10 16:06:38.426824,-0.31,1.6300000000000001,2.97,0.6501351463678877,-5.4606988971772585,-0.9359328113819593
2025-02-10 16:06:38.485107,2.94,18.72,11.74,-0.6664976081053346,-0.4494222823885399,-0.8224864100023278
2025-02-10 16:06:38.544141,-0.15,-1.34,-0.01,-0.31306843457648287,1.9733128855360889,0.7973973020049093
2025-02-10 16:06:38.604574,0.68,7.76,-1.93,1.598067096357308,1.4911656796726553,3.2975814554867866
2025-02-10 16:06:38.664875,0.24,2.27,-2.23,2.1980240267303586,0.9512044423369096,-0.18871372537188688
2025-02-10 16:06:38.724675,1.96,2.89,-2.09,0.23671027980173096,-0.6741334235828098,0.8868454261696187
2025-02-10 16:06:38.782874,2.0100000000000002,1.29,-1.06,2.3311053821949264,-0.9032078879070655,-0.830122225479803
2025-02-10 16:06:38.840886,1.3800000000000001,4.83,2.21,-1.7027868514769677,-0.33815754257390135,2.31147042810999
2025-02-10 16:06:38.900889,4.71,2.62,-1.59,-1.0875582901489667,-0.33161255787892263,-0.4734205596034619
2025-02-10 16:06:38.961400,0.04,4.76,-1.48,1.210822168571066,0.8126689329598596,-0.34143003492139073
2025-02-10 16:06:39.021589,-1.09,4.11,-0.72,-0.6599526234103559,-1.1813697374436618,-1.5435255572324853
2025-02-10 16:06:39.079910,4.5,0.5,1.6,4.133157834879071,-0.05781403147231216,1.4333516482003432
2025-02-10 16:06:39.138235,1.19,4.59,-2.08,-0.7068583470577035,-0.11999138607461016,0.5410520681182421
2025-02-10 16:06:39.196407,0.17,3.63,-0.36,1.7300576210393792,0.5530512067257032,-1.189005552921137
2025-02-10 16:06:39.257419,0.23,2.5100000000000002,-0.49,0.6719517620178169,-0.5126904677733343,-0.4603305902135044
2025-02-10 16:06:39.318082,0.4,2.88,-0.35000000000000003,0.037088246604879506,-0.4036073895236887,0.8377580409572782
2025-02-10 16:06:39.378122,1.22,3.84,-0.78,1.2686362000433782,-0.12435470920459599,-0.24434609527920614
2025-02-10 16:06:39.436415,-0.29,3.44,-0.16,-0.7101308394051928,0.36979163526629855,-0.30870511144649704
2025-02-10 16:06:39.494506,0.54,2.56,-1.47,0.35015668118136234,0.49960049838337683,-0.6250460383704692
2025-02-10 16:06:39.554784,0.39,2.49,-1.44,-0.17998707911191522,-0.12217304763960307,0.28034351110158917
2025-02-10 16:06:39.615859,-0.5,3.11,-0.72,0.18980455615438332,-1.050470043544087,0.02181661564992912
2025-02-10 16:06:39.675828,1.84,3.21,-1.3800000000000001,-0.2007128639793479,0.1189005552921137,0.19962203319685143
2025-02-10 16:06:39.733972,2.16,2.32,-0.05,0.4385139745635753,-0.08399397025222712,0.904298718689562
2025-02-10 16:06:39.792200,-1.36,3.93,0.54,3.3270338866141906,0.4603305902135044,-0.4079707126536745
2025-02-10 16:06:39.850304,1.79,2.44,-1.7,-1.2708178616083712,0.9675669040743564,0.16580627893946132
2025-02-10 16:06:39.910187,4.08,15.030000000000001,-2.38,3.617194874758248,0.964294411726867,-3.93353580168222
2025-02-10 16:06:39.970875,1.74,1.71,-3.23,3.031418744557651,0.09817477042468103,-1.806415775814131
2025-02-10 16:06:40.031404,-0.15,1.31,-4.11,1.4835298641951802,0.12108221685710661,-1.0373800741541297
2025-02-10 16:06:40.089533,2.3000000000000003,2.05,-2.86,0.2301652951067522,0.605411084285533,-0.5726861608106394
2025-02-10 16:06:40.147528,1.03,1.47,-2.25,0.507236313860852,0.14508049407202864,-0.31306843457648287
2025-02-10 16:06:40.206410,0.37,2.0,-3.37,0.9195703496445123,-0.3948807432637171,-0.43196898986859655
2025-02-10 16:06:40.266892,0.8300000000000001,3.75,-4.04,0.49741883681838395,-0.08726646259971647,-0.44178646691106466
2025-02-10 16:06:40.327599,2.19,1.1,-2.39,-0.6239552075879728,0.7221299780126539,0.16580627893946132
2025-02-10 16:06:40.386587,0.47000000000000003,1.56,-2.54,0.12762720155208535,-0.2181661564992912,-0.32288591161895097
2025-02-10 16:06:40.444647,1.58,2.0300000000000002,-3.2600000000000002,0.33815754257390135,0.30543261909900765,-0.1712604328519436
2025-02-10 16:06:40.502864,0.46,0.89,-2.37,0.06763150851478027,0.17453292519943295,-0.34797501961636945
2025-02-10 16:06:40.562845,0.33,1.61,-3.92,-0.07308566242726255,0.47669305195095124,-0.0916297857297023
2025-02-10 16:06:40.622988,0.24,0.77,-2.6,-0.7592182246175333,1.0221084431991792,0.07308566242726255
2025-02-10 16:06:40.683798,0.45,1.74,-2.36,0.24107360293171676,0.4232423436086249,0.09708393964218458
2025-02-10 16:06:40.742922,0.38,1.12,-2.42,0.1308996938995747,0.0545415391248228,-0.031634092692397225
2025-02-10 16:06:40.801725,0.19,0.9,-2.98,0.22907446432425577,0.22689280275926285,-0.06435901616729091
2025-02-10 16:06:40.861265,1.8900000000000001,1.49,-2.95,0.6534076387153771,-0.32615840396644036,-0.007635815477475192
2025-02-10 16:06:40.920880,-0.5,1.01,-2.73,0.13308135546456762,0.2617993877991494,0.0818123086872342
2025-02-10 16:06:40.981525,0.71,1.68,-2.57,0.22580197197676638,-0.07526732399225546,0.16471544815696484
2025-02-10 16:06:41.041117,1.03,1.46,-2.24,0.08508480103472356,-0.0818123086872342,0.17016960206944712
2025-02-10 16:06:41.099227,-0.23,1.24,-2.45,0.13744467859455345,-0.21380283336930536,0.04254240051736178
2025-02-10 16:06:41.157559,-0.4,0.73,-2.5,0.06435901616729091,-0.19853120241435498,0.08072147790473774
2025-02-10 16:06:41.217366,0.51,0.9500000000000001,-2.88,0.10253809355466686,-0.33597588100890846,0.10581058590215622
2025-02-10 16:06:41.278140,0.86,1.33,-2.8000000000000003,-0.16798794050445423,-0.3174317577064687,0.21380283336930536
2025-02-10 16:06:41.339148,0.36,0.9400000000000001,-2.58,-0.19634954084936207,0.09926560120717749,0.2977968036215325
2025-02-10 16:06:41.397346,0.55,1.06,-2.46,-0.272707695624114,-0.00545415391248228,0.1308996938995747
2025-02-10 16:06:41.455342,-0.17,0.85,-1.85,0.04363323129985824,0.026179938779914945,0.10144726277217041
2025-02-10 16:06:41.514560,0.65,0.87,-2.74,0.14180800172453928,-0.3010692959690218,-0.08290313946973066
2025-02-10 16:06:41.574269,0.87,0.32,-2.69,-0.061086523819801536,-0.11453723216212788,-0.08726646259971647
2025-02-10 16:06:41.634123,0.86,1.18,-1.49,0.3534291735288517,-0.020725784867432664,-0.01090830782496456
2025-02-10 16:06:41.694347,0.8,1.02,-2.09,0.12762720155208535,0.23452861823673804,-0.16580627893946132
2025-02-10 16:06:41.753670,0.47000000000000003,1.32,-2.99,0.6250460383704692,0.003272492347489368,-0.5083271446433485
2025-02-10 16:06:41.811779,1.55,0.25,-3.09,0.6283185307179586,0.8257589023498172,-0.2748893571891069
2025-02-10 16:06:41.871751,2.5300000000000002,0.86,-2.65,-1.3079061082132506,1.5827954654023577,-0.6065019150680295
2025-02-10 16:06:41.931556,2.2600000000000002,2.0300000000000002,-4.89,-2.9277898202204877,0.9653852425093635,-2.342013690019891
2025-02-10 16:06:41.992330,-0.09,0.48,-0.2,-3.86590429316744,0.7068583470577035,-0.08835729338221293
2025-02-10 16:06:42.051213,-2.45,4.07,14.77,-11.636982787672192,0.48105637508093707,-1.8293232222465567
2025-02-10 16:06:42.109313,1.32,2.97,-0.07,-14.317154020265985,1.3580843242080878,-4.240059251563724
2025-02-10 16:06:42.168820,0.41000000000000003,2.24,1.29,-0.595593607243065,-0.16253378659197193,0.17562375598192942
2025-02-10 16:06:42.228688,-0.35000000000000003,-0.01,3.18,-2.3027437818500185,2.109666733348146,0.459239759431008
2025-02-10 16:06:42.288362,-1.99,5.38,6.2,5.8348538555735425,1.241365430480967,0.8693921336496754
2025-02-10 16:06:42.347359,1.61,-0.36,0.55,-0.06326818538479445,-0.36324665057131983,1.6929693744344996
2025-02-10 16:06:42.406293,2.17,3.9,-0.45,4.46913371588798,-2.375829444277281,0.6359543461954338
2025-02-10 16:06:42.465281,8.46,7.91,-8.35,5.7552232084513015,-8.356854624705349,-0.5715953300281429
2025-02-10 16:06:42.525157,4.68,-0.4,4.29,-1.7071501746069535,-4.9512809217514135,4.196426020263866
2025-02-10 16:06:42.585300,5.39,1.2,-0.47000000000000003,-2.8165250804058495,-3.7360954300503617,0.15926129424448257
2025-02-10 16:06:42.645288,3.2,7.09,-2.52,-20.744328990735102,-3.935717463247213,5.4694255434372305
2025-02-10 16:06:42.704315,4.22,5.78,2.04,-15.142912922615801,-3.1274118534173394,-1.521708941582556
2025-02-10 16:06:42.763178,4.7,2.85,2.67,-3.6946438603154963,-0.5399612373357457,-4.302236606166022
2025-02-10 16:06:42.823233,-5.37,2.06,2.22,-11.063205796079057,2.754347725803551,-0.22580197197676638
2025-02-10 16:06:42.884305,-2.52,2.61,0.64,-1.7333301133868686,0.6032294227205401,2.155481626212997
2025-02-10 16:06:42.943808,0.15,2.91,2.23,3.50265764259612,0.3392483733563978,1.9744037163185852
2025-02-10 16:06:43.002985,2.48,4.61,0.66,5.621051022204238,-0.4494222823885399,2.849250003880743
2025-02-10 16:06:43.062058,3.06,5.91,-0.66,1.0319259202416473,1.1780972450961724,1.4202616788103857
2025-02-10 16:06:43.120246,-0.32,6.23,-1.82,1.4704398948052226,0.3937899124812206,-0.5825036378531074
2025-02-10 16:06:43.180067,-0.02,1.71,-4.36,-0.8453938564347534,-1.634064512179691,-3.9128100168147877
2025-02-10 16:06:43.239857,6.63,-0.02,-0.33,-3.2004975158446016,-3.4917493347711557,-7.045676024144609
2025-02-10 16:06:43.300020,9.63,-2.67,0.64,-1.1039207518864134,2.0365810709208834,-6.5591654951511895
2025-02-10 16:06:43.358245,-3.38,-5.21,-3.7600000000000002,-0.8955720724295904,3.940080786377199,-2.057306855788316
2025-02-10 16:06:43.417173,-3.0500000000000003,-4.46,-4.65,-0.3021601267515183,0.09599310885968812,0.990474350506782
2025-02-10 16:06:43.477914,-2.11,-2.22,-3.99,-2.5459990463467284,-0.22907446432425577,-3.5604716740684323
2025-02-10 16:06:43.537856,-3.64,-0.47000000000000003,-2.45,4.366595622333313,-4.940372613926449,4.157156112093993
2025-02-10 16:06:43.597588,7.74,0.48,0.99,-3.4873860116411697,-3.15795511532724,3.95207992498466
2025-02-10 16:06:43.656013,0.02,4.39,1.01,1.0471975511965976,-0.15162547876700738,5.66032093037411
2025-02-10 16:06:43.715213,0.59,6.36,0.5,1.241365430480967,0.21925698728178766,2.493639168786898
2025-02-10 16:06:43.775104,2.73,6.53,-0.22,0.20507618710933373,1.538071403320003,-0.2083486794568231
2025-02-10 16:06:43.834799,-1.0,3.31,-1.61,-4.969825045053853,-4.334961529640916,0.9708393964218458
2025-02-10 16:06:43.894615,2.79,5.74,-1.09,4.509494454840349,-3.4328444725163467,1.8882280845013653
2025-02-10 16:06:43.954984,10.5,2.57,1.33,13.023428712225188,-4.386230576418249,-2.6779895710287995
2025-02-10 16:06:44.013076,-0.85,0.27,-2.35,1.1388273369263,2.9943304979527716,-4.716752303514675
2025-02-10 16:06:44.071571,-9.55,-0.34,-3.59,-2.349649505497366,1.9853120241435498,-5.05709150765357
2025-02-10 16:06:44.132187,7.41,-3.0100000000000002,-0.86,6.973681192499843,-3.3913929027814818,0.29888763440402893
2025-02-10 16:06:44.192507,-0.71,-1.56,-1.1500000000000001,-5.285075141195329,2.6899887096362605,3.5135659504210848
2025-02-10 16:06:44.252535,-1.82,2.21,-3.73,0.06654067773228381,1.6395186660921732,5.86976044061343
2025-02-10 16:06:44.309916,4.3500000000000005,3.33,0.49,-2.007128639793479,-1.9220438387587555,2.9408797896104453
2025-02-10 16:06:44.367471,1.8800000000000001,4.34,-0.12,2.992148836387779,0.4068798818711781,1.9504054391036634
2025-02-10 16:06:44.425911,-0.8,5.16,-0.62,-0.35561083509384467,0.14180800172453928,-0.6806784082777885
2025-02-10 16:06:44.486125,4.91,-3.0100000000000002,-8.92,-1.9056813770213086,0.830122225479803,-1.7027868514769677
2025-02-10 16:06:44.545779,1.05,2.14,-1.31,-3.1546826229797507,0.4537856055185257,-3.2386765932319777
2025-02-10 16:06:44.606166,-1.3900000000000001,0.15,-0.42,5.774858162536238,0.22252947962927702,-1.1922780452686264
2025-02-10 16:06:44.664153,3.2600000000000002,-1.23,-3.2800000000000002,1.3319043854281727,-0.13526301702956053,-1.538071403320003
2025-02-10 16:06:44.722236,0.09,1.22,-0.36,-0.7210391472301574,-0.35124751196385884,0.39924406639370286
2025-02-10 16:06:44.780576,0.16,1.33,-0.49,-0.2748893571891069,-0.09053895494720585,0.8890270877346116
2025-02-10 16:06:44.839448,-0.33,1.76,-0.59,0.27052603405912107,-0.09272061651219876,0.4854196982109229
2025-02-10 16:06:44.899311,1.42,3.46,-1.84,-0.32834006553143325,0.017453292519943295,0.3327033886614191
2025-02-10 16:06:44.960216,0.07,2.2,-0.51,-0.06217735460229799,-0.1265363707695889,-0.15271630954950383
2025-02-10 16:06:45.017723,1.55,1.96,-0.51,-0.13744467859455345,0.19634954084936207,-0.20398535632683726
2025-02-10 16:06:45.075064,1.83,0.58,-1.1500000000000001,-0.07526732399225546,0.03381575425739013,-0.39269908169872414
2025-02-10 16:06:45.133278,-0.32,1.17,-0.74,-0.5017821599483697,0.11780972450961724,-0.1505346479845109
2025-02-10 16:06:45.192961,-0.03,1.6300000000000001,-0.71,-0.20180369476184434,-0.002181661564992912,-0.011999138607461015
2025-02-10 16:06:45.251921,-0.21,1.16,-0.55,-0.11999138607461016,-0.019634954084936207,-0.016362461737446838
2025-02-10 16:06:45.311640,-0.38,0.59,-0.34,-0.025089107997418487,-0.05999569303730508,0.04908738521234052
2025-02-10 16:06:45.369807,-0.42,0.41000000000000003,-0.29,-0.17016960206944712,-0.03599741582238305,0.016362461737446838
2025-02-10 16:06:45.427799,-0.46,0.3,-0.24,-0.08944812416470939,-0.05672320068981571,0.032724923474893676
2025-02-10 16:06:45.485988,-0.48,0.28,-0.25,-0.03490658503988659,-0.038179077387375956,0.025089107997418487
2025-02-10 16:06:45.545472,-0.45,0.24,-0.27,-0.08726646259971647,-0.007635815477475192,0.04690572364734761
2025-02-10 16:06:45.604854,-0.46,0.17,-0.22,-0.13308135546456762,0.006544984694978736,0.039269908169872414
2025-02-10 16:06:45.664386,-0.46,0.19,-0.17,-0.07417649320975901,-0.00545415391248228,0.0272707695624114
2025-02-10 16:06:45.722614,-0.44,0.16,-0.06,0.06217735460229799,-0.06435901616729091,0.004363323129985824
2025-02-10 16:06:45.780629,-0.48,0.2,-0.15,0.05890486225480862,-0.061086523819801536,0.003272492347489368
2025-02-10 16:06:45.838661,-0.5,0.17,-0.16,0.02399827721492203,-0.05890486225480862,0.011999138607461015
2025-02-10 16:06:45.898143,-0.51,0.19,-0.26,-0.022907446432425576,-0.019634954084936207,0.020725784867432664
2025-02-10 16:06:45.957859,-0.02,0.19,0.13,-0.05672320068981571,0.05999569303730508,0.006544984694978736
2025-02-10 16:06:46.017357,-0.02,0.22,0.1,-0.10690141668465268,-0.013089969389957472,0.0272707695624114
2025-02-10 16:06:46.075385,-0.04,0.18,0.18,0.001090830782496456,0.02399827721492203,0.006544984694978736
2025-02-10 16:06:46.133636,-0.05,0.21,0.07,0.03381575425739013,-0.04581489286485115,-0.004363323129985824
2025-02-10 16:06:46.192374,0.0,0.12,0.05,0.2181661564992912,-0.039269908169872414,0.004363323129985824
2025-02-10 16:06:46.251132,-0.06,0.23,-0.17,-0.055632369907319255,0.02181661564992912,0.06763150851478027
2025-02-10 16:06:46.310645,-0.01,0.0,0.33,0.008726646259971648,0.14180800172453928,-0.039269908169872414
2025-02-10 16:06:46.369747,-0.16,0.24,0.1,0.2716168648416175,-0.017453292519943295,-0.10253809355466686
2025-02-10 16:06:46.427746,-0.07,0.1,0.15,0.07090400086226964,-0.07090400086226964,-0.02399827721492203
2025-02-10 16:06:46.487536,-0.08,0.16,-0.02,0.013089969389957472,0.017453292519943295,-0.015271630954950384
2025-02-10 16:06:46.546961,-0.04,0.12,0.1,0.003272492347489368,0.032724923474893676,-0.006544984694978736
2025-02-10 16:06:46.606733,-0.08,0.13,-0.02,0.007635815477475192,0.04036073895236887,0.008726646259971648
2025-02-10 16:06:46.666938,-0.02,0.13,0.15,0.019634954084936207,0.05235987755982989,-0.026179938779914945
2025-02-10 16:06:46.724922,-0.04,0.15,0.07,-0.003272492347489368,0.05235987755982989,-0.015271630954950384
2025-02-10 16:06:46.782934,-0.02,0.12,0.09,-0.0545415391248228,0.031634092692397225,0.0272707695624114
2025-02-10 16:06:46.841159,-0.04,0.1,0.1,-0.022907446432425576,-0.02399827721492203,0.011999138607461015
2025-02-10 16:06:46.900474,-0.05,0.12,0.07,-0.01090830782496456,-0.05345070834232634,0.00545415391248228
2025-02-10 16:06:46.960172,-0.01,0.11,0.08,0.015271630954950384,-0.05781403147231216,-0.038179077387375956
2025-02-10 16:06:47.020850,-0.07,0.13,0.01,0.013089969389957472,-0.04036073895236887,-0.01090830782496456
2025-02-10 16:06:47.078888,-0.07,0.1,0.03,-0.015271630954950384,-0.030543261909900768,0.016362461737446838
2025-02-10 16:06:47.138832,-0.05,0.1,0.06,-0.009817477042468103,0.0,0.001090830782496456
2025-02-10 16:06:47.198202,-0.03,0.1,0.05,0.004363323129985824,0.006544984694978736,-0.009817477042468103
2025-02-10 16:06:47.257170,-0.04,0.11,0.05,-0.10581058590215622,-0.016362461737446838,0.01090830782496456
2025-02-10 16:06:47.316441,-0.03,0.11,0.04,-0.003272492347489368,-0.022907446432425576,0.015271630954950384
2025-02-10 16:06:47.375594,-0.03,0.07,0.08,-0.006544984694978736,-0.007635815477475192,0.00545415391248228
2025-02-10 16:06:47.434249,-0.05,0.09,0.05,0.0,0.002181661564992912,-0.00545415391248228
2025-02-10 16:06:47.494255,-0.02,0.1,0.07,0.008726646259971648,-0.015271630954950384,-0.009817477042468103
2025-02-10 16:06:47.554221,-0.03,0.09,0.06,-0.013089969389957472,-0.011999138607461015,-0.002181661564992912
2025-02-10 16:06:47.614107,-0.04,0.12,0.03,0.0,-0.008726646259971648,0.002181661564992912
2025-02-10 16:06:47.674801,-0.04,0.11,0.07,0.0,0.00545415391248228,-0.002181661564992912
2025-02-10 16:06:47.734160,-0.04,0.11,0.03,0.001090830782496456,0.003272492347489368,0.0
2025-02-10 16:06:47.794193,-0.04,0.1,0.05,0.1407171709420428,0.00545415391248228,-0.001090830782496456
2025-02-10 16:06:47.854109,-0.05,0.1,0.07,-0.001090830782496456,0.002181661564992912,0.001090830782496456
2025-02-10 16:06:47.913848,-0.04,0.11,0.02,-0.001090830782496456,0.001090830782496456,0.0
2025-02-10 16:06:47.974958,-0.05,0.1,0.04,0.0,-0.003272492347489368,0.0
2025-02-10 16:06:48.033796,-0.03,0.09,0.04,-0.10035643198967395,-0.009817477042468103,0.011999138607461015
2025-02-10 16:06:48.093533,-0.04,0.11,0.05,0.002181661564992912,-0.009817477042468103,0.007635815477475192
2025-02-10 16:06:48.153036,-0.03,0.11,0.06,0.001090830782496456,-0.004363323129985824,0.001090830782496456
2025-02-10 16:06:48.212591,-0.04,0.11,0.03,-0.001090830782496456,0.007635815477475192,-0.001090830782496456
2025-02-10 16:06:48.272380,-0.04,0.11,0.06,0.001090830782496456,0.0,0.001090830782496456
2025-02-10 16:06:48.331692,-0.04,0.11,0.04,-0.001090830782496456,-0.001090830782496456,0.0
2025-02-10 16:06:48.391875,-0.05,0.09,0.07,-0.001090830782496456,0.004363323129985824,0.001090830782496456
2025-02-10 16:06:48.451890,-0.04,0.09,0.03,-0.003272492347489368,0.001090830782496456,0.001090830782496456
2025-02-10 16:06:48.511157,-0.06,0.09,0.06,0.0,-0.001090830782496456,0.0
2025-02-10 16:06:48.570724,-0.04,0.09,0.04,-0.002181661564992912,0.002181661564992912,-0.002181661564992912
2025-02-10 16:06:48.631102,-0.05,0.1,0.07,-0.002181661564992912,-0.003272492347489368,0.0
2025-02-10 16:06:48.690034,-0.05,0.11,0.05,-0.05345070834232634,0.017453292519943295,-0.007635815477475192
2025-02-10 16:06:48.750697,-0.03,0.1,0.07,0.001090830782496456,-0.001090830782496456,-0.003272492347489368
2025-02-10 16:06:48.810734,-0.04,0.1,0.05,0.003272492347489368,-0.006544984694978736,0.0
2025-02-10 16:06:48.870838,-0.03,0.12,0.02,0.001090830782496456,-0.003272492347489368,0.0
2025-02-10 16:06:48.931008,-0.03,0.12,0.05,0.002181661564992912,0.003272492347489368,-0.003272492347489368
2025-02-10 16:06:48.990796,-0.03,0.1,0.05,0.0,0.001090830782496456,0.002181661564992912
2025-02-10 16:06:49.051635,-0.05,0.11,0.04,-0.002181661564992912,0.0,0.003272492347489368
2025-02-10 16:06:49.112094,-0.03,0.11,0.05,0.0,-0.002181661564992912,0.001090830782496456
2025-02-10 16:06:49.172144,-0.06,0.11,0.05,-0.002181661564992912,0.004363323129985824,0.0
2025-02-10 16:06:49.232413,-0.02,0.11,0.05,0.001090830782496456,0.002181661564992912,-0.001090830782496456
2025-02-10 16:06:49.292148,-0.04,0.11,0.07,0.002181661564992912,0.00545415391248228,0.0
2025-02-10 16:06:49.353036,-0.05,0.09,0.07,0.002181661564992912,0.0,-0.002181661564992912
2025-02-10 16:06:49.412850,-0.03,0.09,0.06,0.002181661564992912,0.003272492347489368,-0.001090830782496456
2025-02-10 16:06:49.472857,-0.05,0.13,0.04,0.002181661564992912,0.001090830782496456,-0.00545415391248228
2025-02-10 16:06:49.532924,-0.03,0.1,0.07,-0.001090830782496456,-0.002181661564992912,0.001090830782496456
2025-02-10 16:06:49.592120,-0.04,0.12,0.06,-0.003272492347489368,-0.00545415391248228,0.004363323129985824
2025-02-10 16:06:49.652743,-0.04,0.11,0.04,0.0,-0.004363323129985824,0.004363323129985824
2025-02-10 16:06:49.713416,-0.05,0.08,0.07,-0.001090830782496456,-0.008726646259971648,-0.001090830782496456
2025-02-10 16:06:49.773627,-0.07,0.11,0.08,-0.09272061651219876,0.017453292519943295,-0.015271630954950384
2025-02-10 16:06:49.833135,-0.05,0.08,0.04,0.001090830782496456,-0.015271630954950384,0.004363323129985824
2025-02-10 16:06:49.891941,-0.05,0.1,0.08,0.002181661564992912,0.009817477042468103,0.006544984694978736
2025-02-10 16:06:49.951671,-0.05,0.12,0.05,0.001090830782496456,-0.004363323129985824,-0.003272492347489368
2025-02-10 16:06:50.012536,-0.04,0.11,0.07,0.002181661564992912,0.0,0.003272492347489368
2025-02-10 16:06:50.073034,-0.04,0.12,0.08,-0.001090830782496456,0.001090830782496456,0.001090830782496456
2025-02-10 16:06:50.132531,-0.03,0.1,0.04,-0.001090830782496456,0.003272492347489368,-0.002181661564992912
2025-02-10 16:06:50.191775,-0.03,0.1,0.07,-0.002181661564992912,0.006544984694978736,0.001090830782496456
2025-02-10 16:06:50.250556,-0.07,0.09,0.07,-0.001090830782496456,0.0,0.001090830782496456
2025-02-10 16:06:50.311090,-0.03,0.09,0.08,0.0,0.001090830782496456,-0.001090830782496456
2025-02-10 16:06:50.371875,-0.05,0.12,0.07,-0.001090830782496456,0.001090830782496456,0.001090830782496456
2025-02-10 16:06:50.431628,-0.06,0.1,0.08,-0.003272492347489368,0.001090830782496456,-0.001090830782496456
2025-02-10 16:06:50.491920,-0.04,0.09,0.07,-0.001090830782496456,-0.00545415391248228,0.003272492347489368
2025-02-10 16:06:50.550763,-0.02,0.12,0.09,-0.001090830782496456,0.004363323129985824,0.0
2025-02-10 16:06:50.611676,-0.04,0.11,0.08,-0.001090830782496456,0.003272492347489368,0.002181661564992912
2025-02-10 16:06:50.672516,-0.05,0.09,0.06,0.0,0.006544984694978736,-0.002181661564992912
2025-02-10 16:06:50.732560,-0.05,0.11,0.06,0.001090830782496456,0.002181661564992912,-0.001090830782496456
2025-02-10 16:06:50.792628,-0.05,0.11,0.11,0.002181661564992912,0.002181661564992912,-0.002181661564992912
2025-02-10 16:06:50.851430,-0.04,0.1,0.09,-0.001090830782496456,0.001090830782496456,-0.003272492347489368
2025-02-10 16:06:50.911558,-0.04,0.11,0.09,0.001090830782496456,0.001090830782496456,0.0
2025-02-10 16:06:50.971617,-0.05,0.11,0.1,-0.001090830782496456,0.001090830782496456,-0.001090830782496456
2025-02-10 16:06:51.032360,-0.03,0.1,0.07,-0.002181661564992912,-0.003272492347489368,0.001090830782496456
2025-02-10 16:06:51.092969,-0.04,0.1,0.08,0.0,0.0,0.001090830782496456
2025-02-10 16:06:51.150919,-0.06,0.12,0.07,0.002181661564992912,0.0,0.001090830782496456
2025-02-10 16:06:51.210499,-0.05,0.11,0.11,-0.004363323129985824,-0.001090830782496456,0.001090830782496456
2025-02-10 16:06:51.270980,-0.05,0.1,0.09,0.0,0.0,0.001090830782496456
2025-02-10 16:06:51.330425,-0.05,0.08,0.07,0.0,0.001090830782496456,-0.002181661564992912
2025-02-10 16:06:51.389615,-0.03,0.1,0.08,-0.20398535632683726,-0.020725784867432664,0.025089107997418487
2025-02-10 16:06:51.449853,-0.06,0.11,0.08,-0.001090830782496456,0.002181661564992912,0.001090830782496456
2025-02-10 16:06:51.508940,-0.06,0.1,0.1,0.003272492347489368,-0.006544984694978736,-0.002181661564992912
2025-02-10 16:06:51.568540,-0.05,0.11,0.1,-0.002181661564992912,-0.003272492347489368,0.0
2025-02-10 16:06:51.628231,-0.05,0.07,0.12,0.002181661564992912,-0.002181661564992912,0.0
2025-02-10 16:06:51.688134,-0.04,0.11,0.05,0.004363323129985824,0.009817477042468103,-0.00545415391248228
2025-02-10 16:06:51.748965,-0.05,0.11,0.08,0.001090830782496456,-0.001090830782496456,0.001090830782496456
2025-02-10 16:06:51.808111,-0.07,0.09,0.12,-0.007635815477475192,0.002181661564992912,0.003272492347489368
2025-02-10 16:06:51.866179,-0.04,0.07,0.06,-0.028361600344907856,0.017453292519943295,0.05781403147231216
2025-02-10 16:06:51.925753,-0.03,0.11,0.09,0.017453292519943295,0.002181661564992912,-0.020725784867432664
2025-02-10 16:06:51.985082,-0.03,0.05,0.13,0.17889624832941878,-0.007635815477475192,-0.06544984694978735
2025-02-10 16:06:52.046378,-0.02,0.05,0.08,0.031634092692397225,-0.05345070834232634,-0.030543261909900768
2025-02-10 16:06:52.105644,0.01,0.12,0.05,-0.09599310885968812,0.017453292519943295,-0.044724062082354694
2025-02-10 16:06:52.163849,0.44,0.17,-0.8300000000000001,0.06217735460229799,-0.050178215994836975,0.16907877128695067
2025-02-10 16:06:52.222195,1.25,-1.8900000000000001,-0.38,-0.18216874067690814,-0.07308566242726255,0.028361600344907856
2025-02-10 16:06:52.282147,2.4,-2.9,-1.1500000000000001,-1.1486448139687682,-0.08399397025222712,-0.33488505022641196
2025-02-10 16:06:52.342877,0.65,-0.19,-1.44,-0.806123948264881,-0.37306412761378793,1.1115565673638885
2025-02-10 16:06:52.403826,0.81,-3.2600000000000002,-0.63,0.3981532356112064,-0.6479534848028948,1.014472627721704
2025-02-10 16:06:52.462052,0.34,-0.43,0.64,-0.9741118887693352,-0.8268497331323136,1.1977321991811087
2025-02-10 16:06:52.520206,0.53,1.1500000000000001,0.49,-0.6206827152404835,-0.6043202535030366,1.064650843716541
2025-02-10 16:06:52.579935,0.3,2.1,0.67,-0.3567016658763411,-0.6141377305455047,1.038470904936626
2025-02-10 16:06:52.639383,0.29,2.35,0.75,-0.20943951023931956,-0.6795875774952921,0.8224864100023278
2025-02-10 16:06:52.699211,0.1,1.72,0.54,-0.20725784867432664,-0.7581273938350369,0.5563236990731926
2025-02-10 16:06:52.757876,-0.19,2.1,1.07,-0.16471544815696484,-0.6446809924554054,0.16798794050445423
2025-02-10 16:06:52.816010,-0.53,1.46,1.35,0.18871372537188688,-0.22252947962927702,-0.07308566242726255
2025-02-10 16:06:52.874160,-1.44,-0.17,0.81,-0.23889194136672387,-0.32615840396644036,-0.2716168648416175
2025-02-10 16:06:52.934106,-0.79,0.48,1.04,-0.12871803233458182,-0.17235126363444003,-0.2792526803190927
2025-02-10 16:06:52.994063,-0.77,-0.31,0.75,0.0272707695624114,-0.18435040224190105,-0.12435470920459599
2025-02-10 16:06:53.055103,-0.5,-0.46,0.59,0.020725784867432664,-0.02181661564992912,-0.17016960206944712
2025-02-10 16:06:53.114091,-0.38,-0.5,0.55,-0.25416357232167425,0.14180800172453928,0.19198621771937624
2025-02-10 16:06:53.172249,-0.32,-0.24,0.27,0.11671889372712078,0.34033920413889424,-0.1189005552921137
2025-02-10 16:06:53.230383,-0.6,-0.16,0.34,0.07417649320975901,0.3010692959690218,0.039269908169872414
2025-02-10 16:06:53.289951,-0.12,-0.12,-0.01,-0.1505346479845109,0.5137812985558308,0.3141592653589793
2025-02-10 16:06:53.350587,0.17,-0.35000000000000003,-0.61,-0.08290313946973066,0.4145156973486533,-0.31634092692397225
2025-02-10 16:06:53.410138,0.51,0.24,-0.02,-0.5257804371632918,-0.019634954084936207,0.1908953869368798
2025-02-10 16:06:53.469044,0.35000000000000003,0.04,0.03,-0.3959715740462135,0.20289452554434081,-0.284706834231575
2025-02-10 16:06:53.528230,0.39,0.08,0.09,0.4559672670835186,-0.05126904677733343,0.14289883250703572
2025-02-10 16:06:53.587900,0.35000000000000003,0.86,0.29,-0.3937899124812206,0.27052603405912107,-0.03490658503988659
2025-02-10 16:06:53.647890,-0.21,-1.26,-0.6,-0.2748893571891069,-0.06326818538479445,-0.10471975511965978
2025-02-10 16:06:53.707982,-0.21,-0.05,-0.19,0.2279836335417593,-0.1908953869368798,0.12762720155208535
2025-02-10 16:06:53.766887,-0.61,-0.64,-0.22,-0.10035643198967395,-0.039269908169872414,-0.24107360293171676
2025-02-10 16:06:53.825812,-0.76,0.01,0.49,0.3490658503988659,-0.34470252726888007,-0.5388704065532492
2025-02-10 16:06:53.884210,0.01,0.21,0.73,0.5257804371632918,0.20180369476184434,-0.7733990247899872
2025-02-10 16:06:53.943960,0.11,0.0,-0.2,-0.49741883681838395,0.25634523388666713,-0.8813912722571364
2025-02-10 16:06:54.003468,0.37,-0.29,-0.09,-0.8737554567796613,0.17016960206944712,-0.210530341021816
2025-02-10 16:06:54.063075,0.01,0.12,-0.11,-1.6526086354821308,0.20507618710933373,0.20398535632683726
2025-02-10 16:06:54.121305,-0.51,-0.6,-0.4,0.5083271446433485,0.32615840396644036,-0.3534291735288517
2025-02-10 16:06:54.180396,-0.16,0.18,0.36,0.06872233929727672,0.055632369907319255,0.35452000431134817
2025-02-10 16:06:54.241161,0.12,0.05,-0.21,0.3021601267515183,-0.24980024919168842,0.5214171140333059
2025-02-10 16:06:54.300220,1.3,0.8200000000000001,0.27,-0.07635815477475191,0.07853981633974483,-0.061086523819801536
2025-02-10 16:06:54.359724,-0.77,1.99,1.26,-0.3119776037939864,0.23234695667174513,-0.07963064712224129
2025-02-10 16:06:54.418303,0.76,-1.76,0.38,3.7066429989229572,-0.7079491778402,1.4628040793277475
2025-02-10 16:06:54.476475,-0.45,-3.14,-0.64,2.1162117180431244,0.05890486225480862,1.5151639568875774
2025-02-10 16:06:54.534663,-0.03,-1.8900000000000001,0.03,-0.2748893571891069,0.5410520681182421,-0.4799655442984406
2025-02-10 16:06:54.594404,1.31,3.36,2.08,-0.6915867161027531,0.9446594576419308,-1.8500490071139892
2025-02-10 16:06:54.654188,-0.61,3.0100000000000002,1.86,2.8437958499682607,0.019634954084936207,-0.3010692959690218
2025-02-10 16:06:54.714295,0.43,0.8300000000000001,-0.16,0.5050546522958591,0.6130468997630083,-0.7526732399225546
2025-02-10 16:06:54.772329,1.42,-0.22,-0.74,0.7144941625351786,0.14835298641951802,-0.8508480103472357
2025-02-10 16:06:54.830473,1.17,-0.36,-0.21,1.6918785436520032,0.13962634015954636,-1.0559241974565694
2025-02-10 16:06:54.889674,0.62,-1.76,-0.93,1.3286318930806833,-0.02399827721492203,-0.9435686268594344
2025-02-10 16:06:54.950571,-0.38,-5.3,-1.11,0.9533861039019025,-0.11126473981463851,-0.6730425928003133
2025-02-10 16:06:55.010182,0.04,-2.86,-1.49,-1.8696839611989255,0.12871803233458182,-1.911135530933791
2025-02-10 16:06:55.069630,1.61,-2.38,1.3800000000000001,-1.3362677085581585,-0.1090830782496456,-3.4481161034712975
2025-02-10 16:06:55.127720,4.5600000000000005,-5.04,0.24,-1.2937253080407969,2.1587541185604864,-2.2776546738526
2025-02-10 16:06:55.186849,1.09,-6.09,-2.71,-4.377503930158277,2.6125397240790122,-1.7071501746069535
2025-02-10 16:06:55.247609,1.1300000000000001,-4.84,-3.71,-0.7657632093125121,-0.9446594576419308,2.2591105505501603
2025-02-10 16:06:55.307822,4.5600000000000005,-2.21,-1.74,-1.4671674024577332,-4.000076479414504,4.520402762665314
2025-02-10 16:06:55.368189,-2.0300000000000002,-4.8100000000000005,-0.68,-16.439910723004086,-4.430954638500604,2.0802143022207416
2025-02-10 16:06:55.427407,5.28,3.86,5.61,0.4265148359561143,-5.008004122441229,3.19177086958463
2025-02-10 16:06:55.486441,4.21,5.47,6.46,6.360634292736835,-1.2326387842209952,4.9131018443640375
2025-02-10 16:06:55.547213,1.1400000000000001,9.47,4.84,1.8031432834666417,1.571887157577393,2.7805276645834662
2025-02-10 16:06:55.606944,3.12,9.57,2.62,1.100648259538924,3.1055952377674103,-1.5293447570600314
2025-02-10 16:06:55.667003,0.6,8.4,0.72,3.2288591161895095,-2.320197074369962,-7.8517999724094905
2025-02-10 16:06:55.725884,9.19,3.0,3.16,-3.663009767623099,-2.320197074369962,-7.19621067212912
2025-02-10 16:06:55.784230,13.870000000000001,-2.57,2.07,-6.340999338651899,3.3870295796514958,-8.569566627292158
2025-02-10 16:06:55.842929,12.88,-8.09,-1.61,-2.3572853209748414,5.362524126752578,-8.216137453763306
2025-02-10 16:06:55.903111,8.45,-10.44,-5.89,-1.9242255003237483,6.145740628585033,-2.8339783729257926
2025-02-10 16:06:55.963046,2.09,-9.3,-9.99,-3.569198320328404,1.1977321991811087,2.1871157189053942
2025-02-10 16:06:56.023291,6.59,-5.8500000000000005,-7.79,0.006544984694978736,-7.677267047210057,6.224280444924778
2025-02-10 16:06:56.081567,17.17,-1.76,-2.05,-1.1181015520588673,-9.07353044880552,6.9867711618898
2025-02-10 16:06:56.139714,9.26,-3.49,-0.07,7.738353571029859,-4.520402762665314,4.1975168510463625
2025-02-10 16:06:56.199459,2.18,2.04,8.27,-19.58477586894137,-9.050623002373095,9.54476934684399
2025-02-10 16:06:56.259181,11.38,5.76,9.82,-5.450881420134791,-2.073669317525763,7.876889080406909
2025-02-10 16:06:56.318885,-0.31,10.71,6.19,7.278022980816354,3.2015883466270982,3.8648134623849435
2025-02-10 16:06:56.378186,5.0200000000000005,9.76,1.25,2.0474893787458477,4.853106151326733,-6.452264078466537
2025-02-10 16:06:56.436489,1.41,10.5,-1.23,11.743884204356846,-2.0758509790907556,-6.429356632034112
2025-02-10 16:06:56.494717,3.24,4.26,2.33,7.244207226558964,-2.160935780125479,-10.141453784869551
2025-02-10 16:06:56.554942,14.280000000000001,-3.11,2.47,-9.126981157147847,1.1497356447512646,-10.42506978831863
2025-02-10 16:06:56.614968,13.38,-7.6000000000000005,-1.73,-3.203770008192091,6.58970875706109,-7.95324723518166
2025-02-10 16:06:56.675312,11.19,-9.51,-7.26,-2.076941809873252,8.101600221601178,-2.5394540616517496
2025-02-10 16:06:56.733679,4.25,-7.47,-11.23,-4.4920411623204055,4.127703680966589,2.282017996982586
2025-02-10 16:06:56.791863,4.05,-4.07,-10.4,-2.339832028454898,-6.366088446649317,5.196717847813116
2025-02-10 16:06:56.850500,15.75,-0.93,-5.15,-1.5184364492350666,-11.92714377581625,4.7189339650796684
2025-02-10 16:06:56.910294,8.66,-6.2,-3.09,26.431920690671625,0.9490227807719167,-0.35779249665883756
2025-02-10 16:06:56.969796,-6.6000000000000005,0.39,3.43,-0.34579335805137656,-5.727952438888891,-2.087850117698217
2025-02-10 16:06:57.030536,10.700000000000001,-2.34,7.1000000000000005,5.5577828368194435,-3.600832413020801,4.36441396076832
2025-02-10 16:06:57.088587,-3.1,3.34,6.97,1.8555031610264716,0.3643374813538163,5.745405731408834
2025-02-10 16:06:57.146604,4.48,6.79,5.48,1.3591751549905842,3.01941960595019,2.887429081268119
2025-02-10 16:06:57.206292,4.3100000000000005,10.92,0.05,6.711881804700694,5.43560978917984,-0.26616271092913524
2025-02-10 16:06:57.265747,1.97,4.0600000000000005,-3.12,9.778207134298231,0.7548549014875475,-7.42419430567088
2025-02-10 16:06:57.326799,-3.09,1.59,2.62,-13.181599175687174,2.765256033628516,-8.782278629878967
2025-02-10 16:06:57.385927,8.290000000000001,-3.19,2.05,4.841107012719272,0.5890486225480862,-5.480333851262195
2025-02-10 16:06:57.444197,3.31,-5.63,-0.24,-2.2623830428976497,5.02327575339618,-3.9215366630747592
2025-02-10 16:06:57.503730,5.29,-7.38,-2.8000000000000003,-0.9337511498169663,3.5179292735510703,-2.86561246561819
2025-02-10 16:06:57.563240,5.8500000000000005,-7.67,-5.0200000000000005,-0.7199483164476609,3.4841135192936803,0.5966844380255614
2025-02-10 16:06:57.623748,3.1,-6.26,-6.88,-1.1431906600562858,0.3097959422289935,2.6452646475539057
2025-02-10 16:06:57.684518,9.040000000000001,4.54,1.92,8.446302748870059,-4.204061835741341,-4.286964975211072
2025-02-10 16:06:57.742918,3.0,-3.8000000000000003,-6.59,9.329875682692188,-0.8028514559173916,-0.4799655442984406
2025-02-10 16:06:57.801160,1.08,-4.1,-2.9,0.9719302272043423,-4.55858184005269,-0.06872233929727672
2025-02-10 16:06:57.861498,5.18,-2.93,1.0,0.1559888018969932,-3.535382566071014,1.0777408131064985
2025-02-10 16:06:57.921582,-0.47000000000000003,-1.59,2.5500000000000003,-3.253948224186928,-1.7191493132144147,2.4740042147019623
2025-02-10 16:06:57.981152,0.54,0.88,-1.41,2.772891849105991,0.21380283336930536,1.2260937995260166
2025-02-10 16:06:58.040245,0.1,1.09,-0.48,0.2825251726665821,-0.12544553998709243,0.2617993877991494
2025-02-10 16:06:58.098871,-0.28,1.37,0.64,-0.6839509006252779,0.4788747135159442,0.004363323129985824
2025-02-10 16:06:58.157122,-1.78,0.9500000000000001,1.73,-1.1900963837036334,1.32972272386318,-0.17780541754692233
2025-02-10 16:06:58.216706,-0.16,0.12,1.47,-0.2530727415391778,1.9558595930161455,-0.37742745074377376
2025-02-10 16:06:58.276720,-1.33,0.34,-0.43,0.4494222823885399,2.265655535245139,0.08617563181722002
2025-02-10 16:06:58.337803,-1.37,0.26,-1.67,-5.545783698211982,0.6305001922829515,0.9752027195518317
2025-02-10 16:06:58.396691,-1.41,0.16,-1.49,2.0027653166634933,1.0722866591940161,-0.3174317577064687
2025-02-10 16:06:58.454911,-0.24,-0.35000000000000003,-1.6500000000000001,1.6395186660921732,-0.23125612588924865,-0.9915651812892785
2025-02-10 16:06:58.514633,-1.1,-0.43,-1.62,0.2007128639793479,-0.4886921905584123,-0.5530512067257032
2025-02-10 16:06:58.574125,2.72,-0.9,-0.32,0.6621342849753488,-1.4966198335851375,-0.3425208657038872
2025-02-10 16:06:58.633594,0.12,-0.92,0.23,0.35452000431134817,-0.4919646829059016,-0.10471975511965978
2025-02-10 16:06:58.692336,-0.8300000000000001,-1.1500000000000001,0.45,0.13962634015954636,0.1308996938995747,-0.3370667117914049
2025-02-10 16:06:58.751281,-0.2,-1.12,0.12,-0.04581489286485115,1.1857330605736476,-0.29561514205653955
2025-02-10 16:06:58.810414,-1.76,-1.68,0.5700000000000001,-0.14944381720201447,2.609267231731523,-0.14835298641951802
2025-02-10 16:06:58.870423,13.61,-1.47,-2.3000000000000003,-4.013166448804461,2.5405448924342457,-2.7358036025011114
2025-02-10 16:06:58.930560,-5.32,-2.5300000000000002,-5.75,1.0439250588491085,3.1165035455923746,2.0158552860534504
2025-02-10 16:06:58.991105,0.12,-2.66,-4.79,10.201449477906856,-2.808889264928374,-4.219333466696292
2025-02-10 16:06:59.050179,4.32,-2.7600000000000002,-2.2,-5.76504068549377,-2.732531110153622,1.8293232222465567
2025-02-10 16:06:59.109355,-1.6,-3.3000000000000003,-2.58,6.0966532433726925,-1.7049685130419607,1.2533645690884279
2025-02-10 16:06:59.169541,-0.7000000000000001,-3.94,0.68,-5.8054014244461385,-1.7398750980818474,-0.3785182815262702
2025-02-10 16:06:59.229731,-0.2,0.31,-2.37,1.6875152205220174,0.27052603405912107,-0.05672320068981571
2025-02-10 16:06:59.290161,0.52,-0.08,-0.99,-1.4060808786379317,0.30543261909900765,-0.24107360293171676
2025-02-10 16:06:59.349064,0.31,-0.76,-1.0,0.5672320068981571,0.4406956361285682,0.09272061651219876
2025-02-10 16:06:59.407977,0.93,-0.96,-0.33,-1.1617347833587257,-0.19744037163185854,-0.27707101875409984
2025-02-10 16:06:59.467033,0.25,-0.35000000000000003,-0.8,-0.07744898555724837,-0.16580627893946132,-0.07963064712224129
2025-02-10 16:06:59.526985,0.23,-0.38,-1.3800000000000001,0.2923426497090502,-0.1439896632895322,-0.07308566242726255
2025-02-10 16:06:59.588049,0.03,-0.02,-1.23,0.11671889372712078,-0.028361600344907856,-0.07308566242726255
2025-02-10 16:06:59.648009,0.0,-0.2,-1.29,0.12871803233458182,0.07744898555724837,0.17889624832941878
2025-02-10 16:06:59.707061,0.31,-0.73,0.07,-0.8966629032120869,0.05235987755982989,0.05126904677733343
2025-02-10 16:06:59.765146,0.19,-0.51,-1.23,1.836959037724032,-0.01090830782496456,-0.001090830782496456
2025-02-10 16:06:59.824887,-0.28,-0.38,-0.8300000000000001,-1.5849771269673505,0.026179938779914945,0.09381144729469522
2025-02-10 16:06:59.884889,1.6,-0.87,-0.65,0.38288160465625604,0.14835298641951802,0.18980455615438332
2025-02-10 16:06:59.945803,0.5700000000000001,-0.28,0.01,-0.16907877128695067,-0.022907446432425576,-0.14944381720201447
2025-02-10 16:07:00.004795,0.12,-0.32,-1.27,1.1780972450961724,0.07963064712224129,0.04145156973486533
2025-02-10 16:07:00.062849,0.45,-0.37,-0.63,-0.6435901616729091,0.026179938779914945,-0.08726646259971647
2025-02-10 16:07:00.122033,0.11,-0.26,-0.79,0.15489797111449674,-0.031634092692397225,0.016362461737446838
2025-02-10 16:07:00.181624,1.52,-1.43,0.43,0.358883327441334,-0.459239759431008,-1.0755591515415055
2025-02-10 16:07:00.241422,-4.03,0.27,3.81,-1.8653206380689398,-3.4797501961636947,-0.5345070834232635
2025-02-10 16:07:00.300765,2.37,-24.78,-13.34,-3.8920842319473548,-10.96394019487188,6.0791999508527494
2025-02-10 16:07:00.359859,-2.97,11.11,1.17,0.3108867730114899,-4.172427743048944,-0.210530341021816
2025-02-10 16:07:00.418961,0.37,0.77,-2.73,2.5449082155642317,-2.4609142453120048,-1.3755376167280309
2025-02-10 16:07:00.479005,-1.1,0.77,0.81,-4.228060112956263,1.2457287536109527,-0.7984881327874057
2025-02-10 16:07:00.538999,4.43,2.19,9.24,-2.410736029317168,-1.7038776822594641,-10.930124440614488
2025-02-10 16:07:00.599120,-0.31,7.58,2.29,-1.5206181108000596,-1.8893189152838616,-3.406664533736432
2025-02-10 16:07:00.658929,9.1,6.83,-13.31,9.246972543222457,-4.220424297478788,10.607238528995538
2025-02-10 16:07:00.717776,5.18,3.9,7.95,4.459316238845512,-6.055201673637827,3.274674009054361
2025-02-10 16:07:00.777230,2.7800000000000002,-1.27,2.48,-0.5737769915931359,-4.505131131710363,6.680247712008296
2025-02-10 16:07:00.836858,1.0,1.32,4.09,3.7328229377028723,0.16144295580947549,3.825543554215071
2025-02-10 16:07:00.896834,1.3900000000000001,-1.24,8.91,4.987278337573796,-12.267482979955144,2.8317967113608
2025-02-10 16:07:00.956243,-0.86,-2.87,-1.32,-1.0962849364089382,2.1696624263854507,-0.7963064712224128
2025-02-10 16:07:01.015258,1.37,-14.83,-10.76,-5.096361415823442,-5.425792312137372,8.47030102608498
2025-02-10 16:07:01.074357,0.84,-1.02,-5.47,-1.2806353386508393,0.8083056098298739,1.698423528346982
2025-02-10 16:07:01.134456,0.04,1.25,1.6400000000000001,1.3864459245529954,0.791943148092427,-0.001090830782496456
2025-02-10 16:07:01.194292,2.34,3.45,-0.11,-0.5061454830783556,-0.8126689329598596,1.3646293089030663
2025-02-10 16:07:01.254284,-0.73,0.22,5.32,-2.1205750411731104,0.12544553998709243,2.9866946824752962
2025-02-10 16:07:01.312464,0.27,-1.1300000000000001,1.07,-2.283108827765082,-2.1751165802979333,1.2839078309983287
2025-02-10 16:07:01.371475,0.56,0.56,4.13,-2.91469985083053,-2.980149697780318,2.4227351679246287
2025-02-10 16:07:01.432376,1.48,5.14,5.63,-3.318307240354219,-0.5846852994181004,5.150902954948265
2025-02-10 16:07:01.492399,0.21,1.74,0.28,-1.3308135546456763,-0.9162978572970231,1.473712387152712
2025-02-10 16:07:01.552581,0.4,2.8000000000000003,4.68,0.0916297857297023,-0.039269908169872414,1.4180800172453927
2025-02-10 16:07:01.610581,-0.4,0.92,-0.67,-0.8399397025222711,-2.2580197197676637,0.49960049838337683
2025-02-10 16:07:01.669588,2.4,-1.59,4.69,-4.8334711972417965,3.0968685915074383,1.2119129993535627
2025-02-10 16:07:01.730371,-2.92,-1.67,1.29,0.17889624832941878,-0.27052603405912107,0.12762720155208535
2025-02-10 16:07:01.789880,1.96,0.06,0.38,-0.14726215563702155,0.9348419805994628,-0.1189005552921137
2025-02-10 16:07:01.849448,0.78,-0.3,2.95,-0.2399827721492203,-0.026179938779914945,0.12762720155208535
2025-02-10 16:07:01.908843,-0.14,-0.92,0.98,0.12871803233458182,0.5115996369908379,0.07308566242726255
2025-02-10 16:07:01.966904,-0.3,-0.8300000000000001,0.93,0.06544984694978735,-0.2879793265790644,0.039269908169872414
2025-02-10 16:07:02.024922,-0.35000000000000003,-0.85,1.05,0.09490227807719166,0.23452861823673804,0.23125612588924865
2025-02-10 16:07:02.085403,-0.75,-0.2,0.74,0.25089107997418486,-0.05781403147231216,0.12326387842209953
2025-02-10 16:07:02.146464,-0.38,-0.81,0.58,0.14835298641951802,0.11671889372712078,-0.17453292519943295
2025-02-10 16:07:02.206534,-0.21,-0.46,0.55,-0.0719948316447661,-0.09490227807719166,-0.10690141668465268
2025-02-10 16:07:02.264528,-0.3,-0.59,0.78,-0.06654067773228381,-0.20289452554434081,-0.08508480103472356
2025-02-10 16:07:02.322676,0.09,-0.67,0.42,-0.06544984694978735,-0.3523383427463553,0.04254240051736178
2025-02-10 16:07:02.381715,-0.03,-0.58,0.85,0.1265363707695889,0.1189005552921137,-0.136353847812057
2025-02-10 16:07:02.442193,0.0,-0.63,0.6900000000000001,0.08290313946973066,-0.2748893571891069,-0.20507618710933373
2025-02-10 16:07:02.501961,-0.04,-0.48,0.52,-0.05126904677733343,-0.00545415391248228,-0.16580627893946132
2025-02-10 16:07:02.562125,-0.24,-0.28,0.19,0.10362892433716332,0.27707101875409984,-0.09708393964218458
2025-02-10 16:07:02.620326,-0.01,-0.2,0.34,0.01090830782496456,0.23234695667174513,0.038179077387375956
2025-02-10 16:07:02.678421,0.01,-0.15,0.04,-0.31525009614147576,0.16580627893946132,0.34470252726888007
2025-02-10 16:07:02.736575,-0.01,-0.12,0.19,0.27052603405912107,-0.5552328682906961,-0.2083486794568231
2025-02-10 16:07:02.797360,1.51,-0.12,0.81,0.04254240051736178,-0.19744037163185854,0.20725784867432664
2025-02-10 16:07:02.858301,-0.09,0.3,0.23,-0.14508049407202864,-0.7908523173099306,0.7733990247899872
2025-02-10 16:07:02.917055,-0.13,0.97,-0.17,-0.11562806294462433,1.1104657365813921,0.47123889803846897
2025-02-10 16:07:02.975094,0.14,-1.48,0.16,-0.04145156973486533,0.27707101875409984,0.05672320068981571
2025-02-10 16:07:03.033205,0.16,-0.75,0.41000000000000003,0.04036073895236887,0.08617563181722002,-0.37306412761378793
2025-02-10 16:07:03.093740,-0.12,-0.04,0.0,-0.020725784867432664,-0.39706240482870997,-0.46687557490848314
2025-02-10 16:07:03.154684,1.08,-0.47000000000000003,0.47000000000000003,-0.3665191429188092,-1.1213740444063567,-0.3239767424014474
2025-02-10 16:07:03.214944,0.07,-1.12,-1.3,0.07526732399225546,0.33161255787892263,0.10035643198967395
2025-02-10 16:07:03.273044,0.28,-0.36,0.08,-0.019634954084936207,-0.2399827721492203,0.3817907738737596
2025-02-10 16:07:03.331057,0.4,-0.07,0.18,0.4505131131710363,-0.5606870222031783,0.0
2025-02-10 16:07:03.391176,-0.11,-0.25,0.45,-0.4145156973486533,0.20507618710933373,-0.5617778529856748
2025-02-10 16:07:03.451765,-0.05,-0.18,0.23,-0.028361600344907856,-0.10581058590215622,-0.33052172709642613
2025-02-10 16:07:03.511476,0.05,-0.22,0.17,-0.22689280275926285,0.1505346479845109,0.16798794050445423
2025-02-10 16:07:03.570460,-0.18,-0.23,0.19,-0.4494222823885399,-0.1308996938995747,0.918479518862016
2025-02-10 16:07:03.628720,-0.48,1.55,1.08,1.1617347833587257,-0.18653206380689397,0.9250245035569946
2025-02-10 16:07:03.687833,0.04,0.3,0.31,-0.24652775684419906,-0.06763150851478027,-0.21380283336930536
2025-02-10 16:07:03.748436,-0.14,-0.11,-0.22,-0.33161255787892263,0.20180369476184434,-0.02399827721492203
2025-02-10 16:07:03.809137,-0.2,-0.27,0.37,-0.2999784651865254,0.4701480672559725,-0.2596177262341565
2025-02-10 16:07:03.869206,-0.76,0.41000000000000003,0.29,-0.4363323129985824,-0.3294308963139297,-0.7472190860100724
2025-02-10 16:07:03.927449,-0.33,-0.12,-0.79,-0.33052172709642613,-0.45705809786601503,-0.19744037163185854
2025-02-10 16:07:03.985535,-0.1,-0.04,0.37,-0.0916297857297023,-0.3196134192714616,-0.03599741582238305
2025-02-10 16:07:04.043634,0.3,-0.24,0.24,-0.00545415391248228,-0.12326387842209953,0.020725784867432664
2025-02-10 16:07:04.104732,0.18,-0.71,0.59,-0.25743606466916363,0.346884188833873,-0.15817046346198613
2025-02-10 16:07:04.165724,-0.41000000000000003,-0.13,-0.39,-0.15926129424448257,0.6599526234103559,-0.22907446432425577
2025-02-10 16:07:04.224656,-0.13,-0.26,-0.06,-0.2279836335417593,0.24980024919168842,-0.13744467859455345
2025-02-10 16:07:04.282663,0.47000000000000003,0.02,0.79,-0.22362031041177347,0.15162547876700738,0.004363323129985824
2025-02-10 16:07:04.340830,0.84,-0.85,-0.2,-0.11780972450961724,0.7526732399225546,0.061086523819801536
2025-02-10 16:07:04.401584,-0.47000000000000003,-0.39,0.03,0.24652775684419906,0.4756022211684548,-0.11453723216212788
2025-02-10 16:07:04.462348,0.02,0.06,0.17,0.22907446432425577,0.9326603190344699,-0.12217304763960307
2025-02-10 16:07:04.522650,-0.39,-0.29,0.29,0.002181661564992912,0.3763366199612773,-0.10471975511965978
2025-02-10 16:07:04.580761,0.02,0.01,0.28,0.136353847812057,0.5050546522958591,-0.16035212502697901
2025-02-10 16:07:04.638775,-0.99,0.03,-0.05,-0.07417649320975901,0.4308781590861001,-0.23452861823673804
2025-02-10 16:07:04.697512,-0.04,-0.14,0.08,-0.1308996938995747,0.30543261909900765,0.02945243112740431
2025-02-10 16:07:04.757044,-0.15,0.04,0.29,0.21162117180431245,0.17235126363444003,0.04690572364734761
2025-02-10 16:07:04.817380,0.0,-0.06,0.02,-0.09817477042468103,0.08617563181722002,0.04799655442984406
2025-02-10 16:07:04.877759,-0.02,-0.06,0.21,-0.09926560120717749,0.032724923474893676,0.06872233929727672
2025-02-10 16:07:04.935883,0.07,-0.16,0.17,0.16798794050445423,0.05672320068981571,0.01090830782496456
2025-02-10 16:07:04.994190,-0.17,-0.11,0.08,0.0719948316447661,0.1832595714594046,-0.044724062082354694
2025-02-10 16:07:05.054095,-0.4,0.29,-0.1,-0.23452861823673804,-0.45814892864851153,0.1341721862470641
2025-02-10 16:07:05.114908,-0.34,-0.03,0.26,0.019634954084936207,-0.0818123086872342,-0.09272061651219876
2025-02-10 16:07:05.175346,0.01,0.06,0.27,0.032724923474893676,0.24980024919168842,-0.07308566242726255
2025-02-10 16:07:05.233411,0.06,-0.33,-0.1,0.09599310885968812,0.19525871006686563,-0.04036073895236887
2025-02-10 16:07:05.291690,0.14,-0.02,0.07,-0.030543261909900768,0.10690141668465268,0.02399827721492203
2025-02-10 16:07:05.349848,-0.14,0.25,0.25,0.3567016658763411,-0.1189005552921137,-0.032724923474893676
2025-02-10 16:07:05.409268,1.31,-1.04,0.41000000000000003,0.9959285044192643,0.19198621771937624,-0.0545415391248228
2025-02-10 16:07:05.469094,-0.19,0.04,0.28,0.15271630954950383,-0.17453292519943295,0.030543261909900768
2025-02-10 16:07:05.529947,0.16,0.17,-0.19,0.1832595714594046,-0.05672320068981571,-0.007635815477475192
2025-02-10 16:07:05.588336,-0.43,-0.18,0.14,0.050178215994836975,-0.14726215563702155,0.06435901616729091
2025-02-10 16:07:05.646494,-0.23,-0.7000000000000001,0.41000000000000003,-0.032724923474893676,0.02399827721492203,0.05781403147231216
2025-02-10 16:07:05.706258,-0.06,-0.8200000000000001,0.65,0.8028514559173916,0.5006913291658733,0.15707963267948966
2025-02-10 16:07:05.766225,-0.28,-0.17,-0.09,-0.08944812416470939,-0.26725354171163174,-0.24980024919168842
2025-02-10 16:07:05.826873,-0.13,-0.05,0.07,0.09381144729469522,0.38942658935123475,-0.08399397025222712
2025-02-10 16:07:05.886223,1.61,-0.52,0.16,-0.4286964975211072,0.2585268954516601,-0.43960480534607177
2025-02-10 16:07:05.945397,0.7000000000000001,0.04,0.06,-0.2716168648416175,0.14289883250703572,-0.020725784867432664
2025-02-10 16:07:06.003555,1.1,1.18,0.93,-0.3752457891787809,0.2923426497090502,-0.07526732399225546
2025-02-10 16:07:06.063142,0.81,-0.68,-0.51,0.32506757318394386,0.7384924397501007,-0.06872233929727672
2025-02-10 16:07:06.123221,-0.16,0.21,0.21,0.20507618710933373,1.0210176124166828,-0.12762720155208535
2025-02-10 16:07:06.183394,0.32,0.1,0.42,0.02399827721492203,0.2454369260617026,-0.038179077387375956
2025-02-10 16:07:06.241580,-0.18,-0.29,-0.36,-0.24434609527920614,0.1559888018969932,0.05672320068981571
2025-02-10 16:07:06.299652,0.15,-0.17,0.18,0.025089107997418487,-0.00545415391248228,-0.028361600344907856
2025-02-10 16:07:06.358942,0.27,0.13,0.17,0.12326387842209953,0.6283185307179586,0.04581489286485115
2025-02-10 16:07:06.417740,-0.08,0.13,0.0,0.23671027980173096,0.21925698728178766,0.06872233929727672
2025-02-10 16:07:06.476308,2.0,0.0,0.48,-0.007635815477475192,-0.25634523388666713,-0.05672320068981571
2025-02-10 16:07:06.536103,0.76,0.01,0.04,0.34470252726888007,0.3763366199612773,0.06544984694978735
2025-02-10 16:07:06.594312,0.03,-0.03,0.15,0.12217304763960307,-0.13744467859455345,0.04254240051736178
2025-02-10 16:07:06.651699,1.32,-0.14,0.26,0.2203478180642841,0.3196134192714616,0.10581058590215622
2025-02-10 16:07:06.709890,1.3,0.02,0.04,0.055632369907319255,-0.11562806294462433,-0.002181661564992912
2025-02-10 16:07:06.769042,-0.12,-0.06,0.0,0.09272061651219876,0.3108867730114899,0.07853981633974483
2025-02-10 16:07:06.827754,1.33,-0.11,0.12,-0.02945243112740431,-0.09599310885968812,-0.018544123302439753
2025-02-10 16:07:06.886952,-0.08,0.0,0.12,-0.09381144729469522,-0.31306843457648287,-0.017453292519943295
2025-02-10 16:07:06.946167,-0.05,-0.11,0.0,-0.07635815477475191,-0.13526301702956053,-0.01090830782496456
2025-02-10 16:07:07.005466,0.04,0.0,0.12,0.00545415391248228,-0.06981317007977318,0.01090830782496456
2025-02-10 16:07:07.065329,-1.87,-0.27,0.02,-0.3141592653589793,-0.3119776037939864,-0.10144726277217041
2025-02-10 16:07:07.125390,0.49,-0.04,0.03,-0.3643374813538163,-0.4046982203061852,-0.004363323129985824
2025-02-10 16:07:07.185072,0.18,-0.02,0.31,-0.6206827152404835,-0.48105637508093707,0.061086523819801536
2025-02-10 16:07:07.244212,0.1,0.29,1.12,0.25416357232167425,-0.4908738521234052,0.4308781590861001
2025-02-10 16:07:07.303334,0.05,-0.52,-0.25,0.3294308963139297,-0.2585268954516601,0.00545415391248228
2025-02-10 16:07:07.361678,0.9500000000000001,0.23,0.4,0.17562375598192942,0.19198621771937624,-0.02399827721492203
2025-02-10 16:07:07.421364,0.39,-0.14,0.0,0.4068798818711781,0.3294308963139297,0.08835729338221293
2025-02-10 16:07:07.481081,-0.03,-0.16,0.18,0.26070855701665296,0.2476185876266955,0.00545415391248228
2025-02-10 16:07:07.541562,-0.11,-0.45,-0.05,-0.008726646259971648,0.6632251157578453,-0.1908953869368798
2025-02-10 16:07:07.599839,1.45,0.19,0.12,-0.3534291735288517,0.5945027764605685,-0.1461713248545251
2025-02-10 16:07:07.658847,0.23,-0.19,-0.08,-0.32288591161895097,0.2945243112740431,-0.016362461737446838
2025-02-10 16:07:07.719829,0.09,-0.41000000000000003,0.06,-0.05672320068981571,-0.11453723216212788,-0.037088246604879506
2025-02-10 16:07:07.779896,-0.21,0.23,0.93,0.17235126363444003,-0.4112432050011639,0.08617563181722002
2025-02-10 16:07:07.839997,-0.27,0.02,-0.3,0.17671458676442586,0.21707532571679475,-0.05126904677733343
2025-02-10 16:07:07.898136,0.05,-0.28,0.0,0.14289883250703572,0.0719948316447661,0.11999138607461016
2025-02-10 16:07:07.957279,0.59,0.0,0.13,0.1810779098944117,-0.055632369907319255,0.09599310885968812
2025-02-10 16:07:08.016702,-0.21,0.1,0.26,0.14835298641951802,0.21162117180431245,0.10581058590215622
2025-02-10 16:07:08.076177,-0.17,-0.21,0.05,0.20725784867432664,0.007635815477475192,0.12871803233458182
2025-02-10 16:07:08.135478,0.01,0.09,0.29,0.07090400086226964,0.14180800172453928,0.10144726277217041
2025-02-10 16:07:08.195526,0.09,-0.08,0.1,0.030543261909900768,0.10362892433716332,0.09708393964218458
2025-02-10 16:07:08.254702,0.22,-0.22,-0.43,0.04036073895236887,0.21162117180431245,0.2552544031041707
2025-02-10 16:07:08.314590,-0.05,-0.15,0.04,-0.025089107997418487,-0.008726646259971648,0.009817477042468103
2025-02-10 16:07:08.373685,-0.03,-0.02,0.01,0.015271630954950384,0.025089107997418487,-0.030543261909900768
2025-02-10 16:07:08.433742,0.03,-0.08,0.24,-0.04799655442984406,-0.19525871006686563,0.006544984694978736
2025-02-10 16:07:08.494164,-0.31,-0.07,0.11,-0.04690572364734761,0.09272061651219876,-0.10253809355466686
2025-02-10 16:07:08.552235,0.4,-0.2,0.29,-0.028361600344907856,0.07308566242726255,-0.06435901616729091
2025-02-10 16:07:08.610379,-0.68,0.15,0.01,-0.05999569303730508,-0.4188790204786391,0.061086523819801536
2025-02-10 16:07:08.669314,-0.26,0.11,0.33,-0.39051742013373125,-0.2879793265790644,-0.10253809355466686
2025-02-10 16:07:08.730119,-0.16,0.48,0.34,-0.1439896632895322,-1.05265170510908,0.09708393964218458
2025-02-10 16:07:08.789677,-0.31,0.17,0.09,0.18871372537188688,-0.9828385350293068,0.0719948316447661
2025-02-10 16:07:08.849573,1.67,0.07,0.78,-0.5825036378531074,1.2806353386508393,-0.37742745074377376
2025-02-10 16:07:08.907805,0.01,0.07,-0.03,-0.11780972450961724,1.3569934934255912,-0.3108867730114899
2025-02-10 16:07:08.966864,0.32,-0.56,-1.11,-0.3239767424014474,0.3196134192714616,-0.05999569303730508
2025-02-10 16:07:09.027751,-0.31,0.2,0.44,-0.30543261909900765,0.07417649320975901,-0.08508480103472356
2025-02-10 16:07:09.087756,-0.01,-0.33,0.12,-0.35015668118136234,-0.1189005552921137,-0.04363323129985824
2025-02-10 16:07:09.147311,0.32,-0.24,0.04,0.15926129424448257,-0.33815754257390135,0.02399827721492203
2025-02-10 16:07:09.205406,-0.2,0.04,-0.11,-0.02399827721492203,-0.1908953869368798,0.002181661564992912
2025-02-10 16:07:09.264480,-1.03,0.21,0.68,-0.9130253649495337,-0.14508049407202864,0.13853550937704992
2025-02-10 16:07:09.323709,0.41000000000000003,-0.84,-1.44,-0.5835944686356039,-1.8151424220741028,-0.06326818538479445
2025-02-10 16:07:09.384501,-1.47,0.6900000000000001,1.03,-0.08290313946973066,-2.332196212977423,0.5094179754258449
2025-02-10 16:07:09.444387,-0.77,0.45,2.08,0.20180369476184434,0.5377795757707527,0.018544123302439753
2025-02-10 16:07:09.503846,-0.01,-0.63,-1.35,-0.9632035809443706,-5.268712679457883,0.41015237421866746
2025-02-10 16:07:09.561852,-0.47000000000000003,0.19,0.51,-0.5345070834232635,-1.9864028549260464,0.1636246173744684
2025-02-10 16:07:09.619979,1.76,0.25,0.03,-0.07417649320975901,-1.8118699297266134,0.4243331743911214
2025-02-10 16:07:09.680488,-0.61,-0.42,0.52,0.09926560120717749,-0.17562375598192942,-0.6217735460229799
2025-02-10 16:07:09.741419,-0.18,-0.39,0.36,0.32288591161895097,1.5489797111449675,-0.29343348049154666
2025-02-10 16:07:09.801936,-0.96,-0.87,0.28,0.40906154343617096,0.3337942194439155,-3.148137638284772
2025-02-10 16:07:09.859994,0.64,-1.17,1.8800000000000001,0.6283185307179586,1.5947946040098187,-0.7352199474026113
2025-02-10 16:07:09.918137,0.0,1.95,0.52,-0.5672320068981571,0.6206827152404835,0.2650718801466388
2025-02-10 16:07:09.976345,0.39,0.6,0.08,0.06435901616729091,0.6490443155853913,-0.4439681284760576
2025-02-10 16:07:10.036108,0.45,-1.69,-1.1500000000000001,0.13199052468207118,0.08290313946973066,0.19634954084936207
2025-02-10 16:07:10.096821,0.39,-0.87,0.72,0.7308566242726255,0.23671027980173096,-1.3842642629880026
2025-02-10 16:07:10.156999,-0.49,-0.86,-0.03,0.09817477042468103,0.4701480672559725,-1.3199052468207118
2025-02-10 16:07:10.215237,0.65,-0.97,1.27,0.028361600344907856,0.7515824091400581,-1.772600021556741
2025-02-10 16:07:10.273390,-2.25,-1.82,0.48,-0.14180800172453928,0.1712604328519436,-0.868301302867179
2025-02-10 16:07:10.332929,0.42,-0.55,0.5,-0.07526732399225546,0.2378011105842274,0.05235987755982989
2025-02-10 16:07:10.394103,-0.44,0.0,-0.29,0.12326387842209953,-0.35452000431134817,-0.47451139038595835
2025-02-10 16:07:10.454673,-0.9,-2.65,0.17,0.3392483733563978,-0.2552544031041707,-0.806123948264881
2025-02-10 16:07:10.512822,-0.26,0.19,-1.06,0.28579766501407144,-0.08290313946973066,-0.10144726277217041
2025-02-10 16:07:10.571892,0.36,-0.05,0.5,0.1559888018969932,-0.667588438887831,-0.4537856055185257
2025-02-10 16:07:10.630183,-0.62,-0.87,0.26,0.7864889941799448,-0.37960911230876665,-0.22689280275926285
2025-02-10 16:07:10.689892,2.18,0.32,0.13,0.4908738521234052,-0.5083271446433485,0.050178215994836975
2025-02-10 16:07:10.749833,-0.07,-0.29,0.19,0.24980024919168842,-0.5465062220307244,-0.04690572364734761
2025-02-10 16:07:10.810546,-0.87,-1.09,0.42,0.07963064712224129,-0.25634523388666713,-0.07417649320975901
2025-02-10 16:07:10.869669,-2.2600000000000002,-0.63,1.03,0.038179077387375956,-0.8443030256522569,0.1712604328519436
2025-02-10 16:07:10.927764,-0.19,0.0,0.22,-0.03490658503988659,-0.07853981633974483,0.08508480103472356
2025-02-10 16:07:10.987583,-0.1,-0.2,0.14,-0.002181661564992912,-0.07635815477475191,-0.014180800172453928
2025-02-10 16:07:11.046636,-0.15,-0.26,0.24,0.001090830782496456,-0.011999138607461015,0.04036073895236887
2025-02-10 16:07:11.105918,0.05,-0.11,0.17,0.009817477042468103,-0.019634954084936207,0.02945243112740431
2025-02-10 16:07:11.165283,-0.19,-0.18,0.1,-0.016362461737446838,0.00545415391248228,0.004363323129985824
2025-02-10 16:07:11.224136,0.45,-0.07,0.33,0.020725784867432664,0.039269908169872414,-0.038179077387375956
2025-02-10 16:07:11.283192,0.01,-0.13,0.23,-0.008726646259971648,0.06981317007977318,-0.00545415391248228
2025-02-10 16:07:11.343192,1.49,-0.05,0.12,-0.001090830782496456,0.11126473981463851,0.05781403147231216
2025-02-10 16:07:11.403146,-0.54,-0.27,0.19,-0.04799655442984406,0.20289452554434081,0.08944812416470939
2025-02-10 16:07:11.463140,-0.14,-0.36,0.14,0.011999138607461015,-0.006544984694978736,-0.04036073895236887
2025-02-10 16:07:11.522141,0.23,0.22,0.24,0.032724923474893676,0.030543261909900768,0.07308566242726255
2025-02-10 16:07:11.581083,-0.14,0.02,0.12,0.04690572364734761,0.039269908169872414,-0.014180800172453928
2025-02-10 16:07:11.640532,-0.12,-0.15,0.11,0.011999138607461015,0.0,-0.03490658503988659
2025-02-10 16:07:11.700326,-0.26,-0.23,0.16,0.013089969389957472,0.002181661564992912,-0.039269908169872414
2025-02-10 16:07:11.759566,-0.41000000000000003,-0.34,0.16,-0.007635815477475192,0.08508480103472356,-0.006544984694978736
2025-02-10 16:07:11.819059,0.1,-0.18,0.16,-0.12980886311707826,0.46469391334349025,0.13308135546456762
2025-02-10 16:07:11.877404,0.24,-0.39,0.12,0.21598449493429828,-0.37960911230876665,-0.039269908169872414
2025-02-10 16:07:11.935741,-0.9500000000000001,-1.67,0.81,-0.31634092692397225,0.8606654873897037,0.0
2025-02-10 16:07:11.995615,0.24,1.3,0.62,-0.0719948316447661,0.4886921905584123,0.025089107997418487
2025-02-10 16:07:12.055807,0.52,0.65,-1.61,-1.1301006906663285,1.523890603147549,-0.9032078879070655
2025-02-10 16:07:12.116118,-0.08,0.1,0.47000000000000003,-0.33161255787892263,1.4791665410651942,-0.2476185876266955
2025-02-10 16:07:12.174253,0.49,-0.08,0.02,0.2923426497090502,1.227184630308513,-0.48323803664593
2025-02-10 16:07:12.232497,-0.5,-0.84,0.01,-0.07635815477475191,1.0013826583317467,-0.7057675162752071
2025-02-10 16:07:12.290713,0.08,-0.31,0.1,-0.4265148359561143,0.6108652381980153,-0.41560652813114973
2025-02-10 16:07:12.350178,1.49,-0.4,-0.04,0.23343778745424157,0.3883357585687383,-0.46687557490848314
2025-02-10 16:07:12.410065,0.76,0.14,0.15,0.2792526803190927,0.30870511144649704,-0.4505131131710363
2025-02-10 16:07:12.470481,0.24,0.13,-0.04,0.24980024919168842,0.46687557490848314,-0.41996985126113556
2025-02-10 16:07:12.528637,0.4,-0.04,-0.02,0.44505895925855404,0.05781403147231216,-0.23889194136672387
2025-02-10 16:07:12.587120,0.35000000000000003,-0.15,0.15,-0.01090830782496456,0.032724923474893676,-0.1090830782496456
2025-02-10 16:07:12.647804,-0.4,-0.25,0.3,0.032724923474893676,-0.3621558197888234,-0.17016960206944712
2025-02-10 16:07:12.708862,0.38,-0.23,0.21,0.09272061651219876,-0.5257804371632918,-0.09926560120717749
2025-02-10 16:07:12.768773,-0.19,-0.31,0.26,0.06217735460229799,-0.545415391248228,-0.032724923474893676
2025-02-10 16:07:12.827610,-0.28,-0.33,0.03,-0.09381144729469522,-0.3523383427463553,0.11780972450961724
2025-02-10 16:07:12.885866,-0.04,-0.1,0.28,0.08944812416470939,-0.5835944686356039,0.6479534848028948
2025-02-10 16:07:12.945010,0.08,0.21,0.07,0.22689280275926285,-1.1039207518864134,1.6198837120072371
2025-02-10 16:07:13.006075,0.64,-0.08,0.06,0.19744037163185854,-0.9839293658118032,1.0461067204141012
2025-02-10 16:07:13.065776,1.8900000000000001,0.27,-0.24,-0.16580627893946132,0.10144726277217041,-0.07853981633974483
2025-02-10 16:07:13.125649,-0.04,-0.17,0.21,-0.019634954084936207,0.16035212502697901,0.0
2025-02-10 16:07:13.183668,0.11,-0.16,0.18,-0.008726646259971648,0.08944812416470939,0.026179938779914945
2025-02-10 16:07:13.241950,-0.19,0.06,-0.04,0.039269908169872414,0.02399827721492203,0.03490658503988659
2025-02-10 16:07:13.301560,-0.13,-0.22,0.1,0.04363323129985824,0.08508480103472356,0.06217735460229799
2025-02-10 16:07:13.361875,0.58,-0.2,0.28,-0.031634092692397225,0.2083486794568231,0.04690572364734761
2025-02-10 16:07:13.422584,0.04,0.07,0.11,-0.002181661564992912,0.007635815477475192,0.18544123302439752
2025-02-10 16:07:13.480611,-1.1,-0.59,-0.23,-0.050178215994836975,0.12544553998709243,0.06544984694978735
2025-02-10 16:07:13.538797,-0.05,0.39,0.07,0.16471544815696484,-0.44724062082354693,0.34470252726888007
2025-02-10 16:07:13.597132,1.4000000000000001,0.66,0.11,0.13962634015954636,-0.09708393964218458,0.06763150851478027
2025-02-10 16:07:13.657939,-0.05,-0.33,0.28,-0.1712604328519436,0.044724062082354694,-0.1461713248545251
2025-02-10 16:07:13.720278,-0.23,-0.29,0.06,-0.14289883250703572,-0.3741549583962844,-0.11453723216212788
2025-02-10 16:07:13.779853,1.35,-0.22,-0.11,-0.03490658503988659,-0.3337942194439155,-0.10471975511965978
2025-02-10 16:07:13.838867,0.45,0.85,0.25,-0.5017821599483697,1.7889624832941877,-0.15162547876700738
