Time,AccX,AccY,AccZ,GyroX,GyroY,GyroZ
2025-02-06 13:14:13.588901,0.0,0.0,0.0,-0.003272492347489368,-0.002181661564992912,0.0
2025-02-06 13:14:13.695073,9.19,-2.91,-0.36,-0.001090830782496456,-0.00545415391248228,0.001090830782496456
2025-02-06 13:14:13.801602,9.16,-2.89,-0.34,-0.004363323129985824,-0.003272492347489368,0.003272492347489368
2025-02-06 13:14:13.907813,9.200000000000001,-2.91,-0.33,-0.001090830782496456,-0.00545415391248228,0.001090830782496456
2025-02-06 13:14:14.015032,9.200000000000001,-2.92,-0.36,0.0,-0.00545415391248228,0.0
2025-02-06 13:14:14.120195,9.17,-2.9,-0.32,0.0,-0.00545415391248228,-0.002181661564992912
2025-02-06 13:14:14.227184,9.19,-2.92,-0.34,-0.001090830782496456,-0.001090830782496456,-0.003272492347489368
2025-02-06 13:14:14.331844,9.17,-2.88,-0.33,0.0,-0.001090830782496456,-0.00545415391248228
2025-02-06 13:14:14.437728,9.23,-2.9,-0.33,-0.002181661564992912,0.004363323129985824,-0.00545415391248228
2025-02-06 13:14:14.542305,9.19,-2.92,-0.31,-0.001090830782496456,0.001090830782496456,-0.007635815477475192
2025-02-06 13:14:14.649376,9.13,-2.92,-0.42,-0.001090830782496456,0.0,-0.004363323129985824
2025-02-06 13:14:14.754387,9.16,-2.93,-0.36,-0.002181661564992912,0.003272492347489368,0.002181661564992912
2025-02-06 13:14:14.861097,9.26,-2.96,-0.34,0.0,-0.006544984694978736,0.014180800172453928
2025-02-06 13:14:14.966840,9.31,-2.94,-0.37,0.0,0.003272492347489368,0.009817477042468103
2025-02-06 13:14:15.072957,9.31,-2.96,-0.39,0.0,0.0,0.006544984694978736
2025-02-06 13:14:15.179046,9.32,-2.94,-0.35000000000000003,0.0,0.001090830782496456,0.006544984694978736
2025-02-06 13:14:15.285046,9.290000000000001,-2.93,-0.37,0.001090830782496456,0.001090830782496456,0.0
2025-02-06 13:14:15.389736,9.3,-2.95,-0.37,-0.002181661564992912,0.003272492347489368,0.0
2025-02-06 13:14:15.495542,9.33,-2.96,-0.34,0.0,-0.001090830782496456,-0.002181661564992912
2025-02-06 13:14:15.601648,9.32,-2.97,-0.33,0.001090830782496456,0.001090830782496456,0.0
2025-02-06 13:14:15.707522,9.34,-2.97,-0.29,-0.001090830782496456,-0.003272492347489368,-0.003272492347489368
2025-02-06 13:14:15.814156,9.290000000000001,-2.9,-0.36,0.0,-0.003272492347489368,-0.00545415391248228
2025-02-06 13:14:15.919783,9.200000000000001,-2.87,-0.44,-0.002181661564992912,-0.001090830782496456,-0.015271630954950384
2025-02-06 13:14:16.027238,9.27,-2.93,-0.33,0.0,0.002181661564992912,-0.013089969389957472
2025-02-06 13:14:16.131953,9.32,-2.93,-0.37,0.002181661564992912,0.002181661564992912,-0.00545415391248228
2025-02-06 13:14:16.239324,9.27,-2.94,-0.34,0.0,0.0,-0.001090830782496456
2025-02-06 13:14:16.343951,9.290000000000001,-2.95,-0.35000000000000003,0.001090830782496456,0.0,-0.001090830782496456
2025-02-06 13:14:16.449890,9.27,-2.96,-0.31,0.001090830782496456,-0.003272492347489368,0.004363323129985824
2025-02-06 13:14:16.554456,9.33,-2.93,-0.33,0.0,0.0,0.009817477042468103
2025-02-06 13:14:16.659036,9.98,-4.46,-1.53,0.07417649320975901,-0.06763150851478027,0.28579766501407144
2025-02-06 13:14:16.764310,8.77,-2.19,-0.18,-0.02181661564992912,-0.05345070834232634,0.2923426497090502
2025-02-06 13:14:16.871135,9.07,-2.63,-0.32,0.01090830782496456,0.0545415391248228,-0.28361600344907856
2025-02-06 13:14:16.976051,9.28,-2.92,-0.35000000000000003,0.002181661564992912,0.032724923474893676,-0.15707963267948966
2025-02-06 13:14:17.082839,9.34,-3.0700000000000003,-0.37,0.002181661564992912,0.007635815477475192,-0.04581489286485115
2025-02-06 13:14:17.187760,8.99,-2.7,-0.09,-0.47669305195095124,0.13526301702956053,-0.4243331743911214
2025-02-06 13:14:17.295351,9.25,-2.68,-0.49,0.2999784651865254,0.15162547876700738,0.12762720155208535
2025-02-06 13:14:17.399998,9.59,-3.11,-0.14,0.003272492347489368,0.016362461737446838,0.07417649320975901
2025-02-06 13:14:17.505034,8.83,-2.21,0.07,0.04363323129985824,0.019634954084936207,-0.020725784867432664
2025-02-06 13:14:17.609726,9.48,-2.46,-0.65,0.02399827721492203,0.01090830782496456,-0.032724923474893676
2025-02-06 13:14:17.719422,8.64,-1.85,-0.8300000000000001,-0.21489366415180183,0.06544984694978735,0.07417649320975901
2025-02-06 13:14:17.826879,12.61,-4.25,-23.42,0.8846637646046258,-1.8107790989441168,-0.061086523819801536
2025-02-06 13:14:17.931459,9.99,-2.3000000000000003,0.24,-0.4930555136883981,0.11344640137963143,0.06435901616729091
2025-02-06 13:14:18.037650,9.91,-2.25,-0.42,0.09053895494720585,0.3948807432637171,0.18653206380689397
2025-02-06 13:14:18.142706,8.9,0.34,-0.06,0.02399827721492203,0.1407171709420428,-0.039269908169872414
2025-02-06 13:14:18.248808,9.75,-0.49,0.81,0.08726646259971647,-0.050178215994836975,-0.08072147790473774
2025-02-06 13:14:18.354147,8.9,-1.3,-0.71,-0.13308135546456762,0.016362461737446838,-0.003272492347489368
2025-02-06 13:14:18.458203,9.56,-1.74,-0.6,-0.004363323129985824,-0.015271630954950384,0.003272492347489368
2025-02-06 13:14:18.562290,9.49,-1.83,-0.81,-0.00545415391248228,0.020725784867432664,0.0
2025-02-06 13:14:18.666577,9.05,0.96,-4.41,-0.38288160465625604,-0.09381144729469522,-0.36760997370130566
2025-02-06 13:14:18.774289,9.38,-4.93,-0.62,-0.284706834231575,-0.09381144729469522,0.2476185876266955
2025-02-06 13:14:18.878763,9.73,-1.98,0.65,0.09599310885968812,-0.020725784867432664,-0.06654067773228381
2025-02-06 13:14:18.985909,9.63,-2.0100000000000002,-1.24,0.3959715740462135,0.032724923474893676,0.10799224746714914
2025-02-06 13:14:19.090481,9.790000000000001,-2.15,-0.5700000000000001,-0.14835298641951802,0.06981317007977318,0.014180800172453928
2025-02-06 13:14:19.197356,9.540000000000001,-1.67,-0.22,-0.14726215563702155,-0.06544984694978735,-0.10799224746714914
2025-02-06 13:14:19.301990,9.36,-1.6600000000000001,-0.7000000000000001,-0.2716168648416175,0.08726646259971647,0.028361600344907856
2025-02-06 13:14:19.408957,9.58,-2.18,-0.5,0.09926560120717749,-0.03490658503988659,0.009817477042468103
2025-02-06 13:14:19.513371,9.52,-2.18,-1.33,-0.13199052468207118,0.11344640137963143,0.019634954084936207
2025-02-06 13:14:19.617755,9.34,-1.94,0.05,-0.27052603405912107,0.04363323129985824,0.07853981633974483
2025-02-06 13:14:19.722281,9.56,-1.9000000000000001,-0.35000000000000003,0.10690141668465268,0.0272707695624114,0.06217735460229799
2025-02-06 13:14:19.826686,10.27,-1.62,1.34,0.10035643198967395,0.055632369907319255,-0.002181661564992912
2025-02-06 13:14:19.931326,9.74,-1.04,-2.38,0.2781618495365963,0.5868669609830933,0.14835298641951802
2025-02-06 13:14:20.035848,9.94,-2.89,-1.55,0.018544123302439753,0.07526732399225546,-0.20180369476184434
2025-02-06 13:14:20.142978,9.28,-2.35,-1.08,0.008726646259971648,-0.02399827721492203,0.05126904677733343
2025-02-06 13:14:20.247141,8.540000000000001,-1.49,-1.1500000000000001,-0.12762720155208535,-0.050178215994836975,-0.1908953869368798
2025-02-06 13:14:20.354270,9.46,-2.1,0.48,-0.20398535632683726,0.04581489286485115,0.04145156973486533
2025-02-06 13:14:20.461845,9.47,-2.04,-0.92,-0.02181661564992912,0.020725784867432664,-0.002181661564992912
2025-02-06 13:14:20.567794,9.33,-1.93,-2.0300000000000002,-0.09817477042468103,-0.06326818538479445,-0.10035643198967395
2025-02-06 13:14:20.672534,9.4,-2.24,-1.0,-0.06217735460229799,-0.003272492347489368,0.017453292519943295
2025-02-06 13:14:20.777559,9.48,-2.44,-0.84,0.02945243112740431,0.04254240051736178,0.07853981633974483
2025-02-06 13:14:20.882019,9.450000000000001,-2.4,-1.0,0.05890486225480862,-0.025089107997418487,0.001090830782496456
2025-02-06 13:14:20.986502,8.370000000000001,-2.87,-2.0300000000000002,0.17998707911191522,0.11017390903214205,0.031634092692397225
2025-02-06 13:14:21.091258,9.36,-2.27,-0.92,-0.006544984694978736,0.002181661564992912,0.009817477042468103
2025-02-06 13:14:21.198323,9.51,-2.2600000000000002,-0.8300000000000001,-0.03381575425739013,0.028361600344907856,0.002181661564992912
2025-02-06 13:14:21.303117,9.49,-2.37,-0.89,0.013089969389957472,0.009817477042468103,0.004363323129985824
2025-02-06 13:14:21.410444,9.56,-1.81,-0.99,0.013089969389957472,0.00545415391248228,0.001090830782496456
2025-02-06 13:14:21.514888,9.8,-2.68,-1.31,0.10690141668465268,-0.04581489286485115,-0.16689710972195776
2025-02-06 13:14:21.622256,9.56,-2.2,-0.92,0.006544984694978736,0.002181661564992912,-0.002181661564992912
2025-02-06 13:14:21.726714,9.49,-2.12,-0.91,0.002181661564992912,-0.001090830782496456,0.002181661564992912
2025-02-06 13:14:21.831293,9.47,-2.19,-0.87,0.001090830782496456,-0.001090830782496456,0.0
2025-02-06 13:14:21.936372,10.03,-2.77,-1.1300000000000001,-0.001090830782496456,0.004363323129985824,-0.001090830782496456
2025-02-06 13:14:22.040883,8.790000000000001,-2.84,-3.27,1.0297442586766545,-0.23452861823673804,-0.002181661564992912
2025-02-06 13:14:22.145590,8.73,-3.61,-1.85,0.6283185307179586,0.007635815477475192,-0.26616271092913524
2025-02-06 13:14:22.251059,9.950000000000001,-2.5500000000000003,-0.34,0.2912518189265537,0.9610219193793778,0.03490658503988659
2025-02-06 13:14:22.357546,8.75,-1.81,0.77,0.619591884457987,1.872956453546415,-0.5345070834232635
2025-02-06 13:14:22.463482,8.96,-2.69,4.46,1.8576848225914646,0.3010692959690218,-0.33488505022641196
2025-02-06 13:14:22.569370,10.21,-2.2600000000000002,2.81,2.542726553999239,1.066832505281534,-0.5465062220307244
2025-02-06 13:14:22.675584,10.94,-5.37,-3.1,1.4813482026301872,-1.117010721276371,0.3010692959690218
2025-02-06 13:14:22.781131,7.15,-0.92,0.62,1.8533214994614786,-1.351539339513109,-1.959132085363635
2025-02-06 13:14:22.890132,9.370000000000001,-0.78,-1.61,0.47123889803846897,-0.11671889372712078,0.7134033317526822
2025-02-06 13:14:22.998958,10.77,-0.43,1.59,0.4308781590861001,-0.47451139038595835,-0.4363323129985824
2025-02-06 13:14:23.110939,8.700000000000001,0.2,-0.53,0.4014257279586958,0.03381575425739013,-0.9250245035569946
2025-02-06 13:14:23.221894,10.42,-0.1,-0.32,0.2748893571891069,0.6370451769779303,-0.05126904677733343
2025-02-06 13:14:23.332769,8.9,1.6400000000000001,-1.0,0.28688849579656794,0.19962203319685143,-0.4188790204786391
2025-02-06 13:14:23.441554,10.78,-1.4000000000000001,0.32,0.3567016658763411,-1.5053464798451093,1.3809917706405133
2025-02-06 13:14:23.550456,9.58,-0.39,-1.21,0.5443245604657315,-0.26616271092913524,-0.3392483733563978
2025-02-06 13:14:23.660410,10.64,-0.55,-1.48,-0.3294308963139297,-0.8999353955595761,0.30325095753401476
2025-02-06 13:14:23.771239,10.98,-0.1,-2.94,-1.1442814908387824,-0.940296134511945,-0.2650718801466388
2025-02-06 13:14:23.882310,7.67,1.93,-2.14,-0.8203047484373349,-0.18544123302439752,-0.5803219762881145
2025-02-06 13:14:23.992356,9.700000000000001,0.91,-3.0500000000000003,-0.2716168648416175,-0.49741883681838395,0.2203478180642841
2025-02-06 13:14:24.101489,11.07,2.58,2.66,-0.3337942194439155,0.7810348402674625,-0.24434609527920614
2025-02-06 13:14:24.211006,10.38,0.06,0.88,0.45814892864851153,-0.36324665057131983,1.8402315300715213
2025-02-06 13:14:24.321385,10.48,-2.4,-0.6900000000000001,0.20943951023931956,-0.421060682043632,-0.42542400517361784
2025-02-06 13:14:24.432256,9.42,-2.81,-2.11,2.6834437249412817,-0.1505346479845109,-0.6337726846304409
2025-02-06 13:14:24.543237,9.4,-2.8000000000000003,1.1,0.45705809786601503,1.0341075818066403,-0.47669305195095124
2025-02-06 13:14:24.652414,9.33,0.51,0.28,0.23452861823673804,0.22471114119426994,0.2650718801466388
2025-02-06 13:14:24.761497,10.06,-2.32,1.19,0.6435901616729091,0.4799655442984406,0.6512259771503842
2025-02-06 13:14:24.872348,9.58,-2.08,1.6600000000000001,0.717766654882668,0.9893835197242855,0.3883357585687383
2025-02-06 13:14:24.983173,9.55,-0.01,0.0,-0.3174317577064687,-0.015271630954950384,-0.37742745074377376
2025-02-06 13:14:25.095254,9.24,-2.23,-0.6900000000000001,-0.7406741013150936,-0.2203478180642841,-0.019634954084936207
2025-02-06 13:14:25.203951,9.1,-1.6600000000000001,0.01,-0.9773843811168246,-0.5650503453331642,-0.8257589023498172
2025-02-06 13:14:25.312636,9.36,-0.68,-0.55,-0.8181230868723419,-1.0831949670189809,-0.6534076387153771
2025-02-06 13:14:25.423454,12.26,-3.69,-4.45,-0.08944812416470939,-1.19118721448613,0.3959715740462135
2025-02-06 13:14:25.533975,10.43,-3.92,1.6500000000000001,0.4134248665661568,0.459239759431008,1.1802789066611654
2025-02-06 13:14:25.644463,7.97,-0.02,-1.71,0.3392483733563978,-0.4930555136883981,-0.5628686837681712
2025-02-06 13:14:25.754113,8.64,-0.9,-0.64,0.5410520681182421,-0.15926129424448257,1.1224648751888533
2025-02-06 13:14:25.863255,9.56,-1.68,-3.52,0.03381575425739013,-0.6523168079328807,0.3567016658763411
2025-02-06 13:14:25.972363,10.89,-2.18,-1.07,-0.45705809786601503,-0.4701480672559725,-0.1189005552921137
2025-02-06 13:14:26.082941,10.97,-2.85,-2.06,0.1734420944169365,-0.07963064712224129,0.4494222823885399
2025-02-06 13:14:26.193486,8.39,-1.99,-2.17,0.1265363707695889,0.06981317007977318,-0.1461713248545251
2025-02-06 13:14:26.304064,9.64,-4.34,-1.84,0.18216874067690814,0.36760997370130566,-0.6697701004528239
2025-02-06 13:14:26.413043,10.28,-3.13,-1.6,0.42542400517361784,0.33488505022641196,0.018544123302439753
2025-02-06 13:14:26.522140,9.41,-3.14,-0.08,0.4166973589136462,1.0537425358915764,0.32834006553143325
2025-02-06 13:14:26.632884,10.15,-3.63,-0.05,0.06872233929727672,0.2694352032766246,0.1505346479845109
2025-02-06 13:14:26.743629,10.08,-3.09,-0.22,0.10035643198967395,-0.08617563181722002,-0.3119776037939864
2025-02-06 13:14:26.854555,8.64,-1.93,-0.16,0.07963064712224129,-0.18980455615438332,-1.2555462306534209
2025-02-06 13:14:26.963408,10.43,-2.22,-1.12,-0.29343348049154666,-1.0711958284115197,-1.0155634585042006
2025-02-06 13:14:27.072411,11.44,-2.18,-1.6400000000000001,-0.20289452554434081,-0.6872233929727672,0.3785182815262702
2025-02-06 13:14:27.182672,9.43,-0.54,-2.02,-0.16798794050445423,0.9315694882519734,-0.015271630954950384
2025-02-06 13:14:27.293419,9.16,0.14,-1.05,-0.3687008044838021,0.34579335805137656,0.14289883250703572
2025-02-06 13:14:27.404355,9.82,-0.6,-1.67,-0.5148721293383273,-0.019634954084936207,-0.4068798818711781
2025-02-06 13:14:27.514122,10.77,-1.5,-2.38,0.4046982203061852,0.6883142237552637,0.10253809355466686
2025-02-06 13:14:27.623203,8.77,-0.32,-0.04,-0.016362461737446838,1.215185491701052,0.5290529295107811
2025-02-06 13:14:27.732360,9.370000000000001,-0.78,-0.65,-0.0916297857297023,0.003272492347489368,-0.12544553998709243
2025-02-06 13:14:27.843103,9.6,-0.7000000000000001,-0.17,0.39051742013373125,-0.48105637508093707,-0.6392268385429232
2025-02-06 13:14:27.953577,9.4,0.59,-0.91,0.23561944901923448,-0.4276056667386107,-0.36979163526629855
2025-02-06 13:14:28.064290,10.700000000000001,-0.02,0.84,0.5170537909033202,0.02945243112740431,-0.08726646259971647
2025-02-06 13:14:28.173217,8.45,1.77,-1.87,0.06654067773228381,0.018544123302439753,-0.4985096676008804
2025-02-06 13:14:28.282221,9.41,0.55,-2.71,-0.667588438887831,0.026179938779914945,0.35452000431134817
2025-02-06 13:14:28.392846,9.450000000000001,-0.43,-3.5100000000000002,-0.9075712110370514,0.8290313946973066,0.7428557628800865
2025-02-06 13:14:28.503916,8.92,-1.41,-0.7000000000000001,-1.6024304194872938,0.42978732830360367,0.22907446432425577
2025-02-06 13:14:28.615020,10.790000000000001,-2.0,0.9400000000000001,-1.485711525760173,0.2999784651865254,0.33597588100890846
2025-02-06 13:14:28.723910,11.1,-1.73,-0.73,-1.4322608174178466,-0.12544553998709243,0.4734205596034619
2025-02-06 13:14:28.832931,8.9,0.06,-0.03,-1.8653206380689398,0.039269908169872414,-0.5050546522958591
2025-02-06 13:14:28.944099,9.88,-0.22,1.19,-1.509709802975095,0.2792526803190927,0.3883357585687383
2025-02-06 13:14:29.055032,8.58,0.65,-0.81,-1.3068152774307542,-0.3010692959690218,-0.14726215563702155
2025-02-06 13:14:29.166462,8.09,-0.16,1.07,-1.1639164449237185,0.19198621771937624,0.009817477042468103
2025-02-06 13:14:29.275675,9.68,-0.92,1.3,-1.1137382289288815,0.3567016658763411,0.22471114119426994
2025-02-06 13:14:29.384701,12.08,-3.67,2.23,-0.830122225479803,0.47778388273344774,0.5061454830783556
2025-02-06 13:14:29.493600,11.4,-3.17,-0.29,-0.5650503453331642,-0.5628686837681712,-0.1407171709420428
2025-02-06 13:14:29.604181,11.97,-4.4,-0.34,-0.27052603405912107,-0.10035643198967395,-0.08835729338221293
2025-02-06 13:14:29.714778,11.06,-4.32,0.67,-0.4537856055185257,0.21271200258680892,-0.21489366415180183
2025-02-06 13:14:29.825324,10.450000000000001,-3.5300000000000002,0.87,-0.4177881896961426,0.3108867730114899,0.032724923474893676
2025-02-06 13:14:29.934383,10.72,-3.0500000000000003,-0.09,-0.06872233929727672,0.04799655442984406,-0.25634523388666713
2025-02-06 13:14:30.043399,8.700000000000001,-2.5,-0.27,-0.05126904677733343,-0.05999569303730508,0.04581489286485115
2025-02-06 13:14:30.154232,7.5,-2.14,2.2800000000000002,0.09817477042468103,-0.19198621771937624,-0.016362461737446838
2025-02-06 13:14:30.265042,7.0600000000000005,-1.76,2.52,0.1189005552921137,-0.46687557490848314,-0.5388704065532492
2025-02-06 13:14:30.375853,6.74,-0.81,1.67,-0.12435470920459599,-0.25743606466916363,-0.06544984694978735
2025-02-06 13:14:30.484656,9.57,-1.3900000000000001,2.2800000000000002,0.23125612588924865,-0.18980455615438332,0.136353847812057
2025-02-06 13:14:30.593642,10.6,-1.43,0.89,0.4046982203061852,-0.25416357232167425,0.07090400086226964
2025-02-06 13:14:30.702630,9.76,-1.09,-0.85,0.2378011105842274,0.0719948316447661,0.05345070834232634
2025-02-06 13:14:30.813194,9.82,-2.56,-2.39,0.20616701789183017,-0.21162117180431245,-0.3021601267515183
2025-02-06 13:14:30.924207,9.8,-2.85,-2.59,-0.12762720155208535,0.5639595145506677,0.29343348049154666
2025-02-06 13:14:31.034483,8.78,-0.81,-1.69,-0.4494222823885399,-0.009817477042468103,-0.14180800172453928
2025-02-06 13:14:31.143465,10.700000000000001,-2.8000000000000003,0.27,-0.06981317007977318,0.2596177262341565,-0.12871803233458182
2025-02-06 13:14:31.252667,10.0,-2.77,0.12,0.3141592653589793,0.15271630954950383,-0.33161255787892263
2025-02-06 13:14:31.363320,10.75,-3.52,1.17,0.4308781590861001,-0.039269908169872414,-0.31634092692397225
2025-02-06 13:14:31.473986,9.38,-3.54,1.19,0.25089107997418486,0.3076142806640006,0.21162117180431245
2025-02-06 13:14:31.584748,7.3100000000000005,-0.6900000000000001,0.07,0.7843073326149519,-0.17453292519943295,0.13744467859455345
2025-02-06 13:14:31.693653,8.86,-2.05,1.34,0.5475970528132209,0.2552544031041707,0.27707101875409984
2025-02-06 13:14:31.802523,11.78,-3.24,-0.24,0.5726861608106394,0.4799655442984406,0.3370667117914049
2025-02-06 13:14:31.912710,11.9,-5.66,1.98,0.6948592084502424,0.9010262263420726,1.1737339219661866
2025-02-06 13:14:32.023979,9.49,-3.5700000000000003,-2.32,0.7864889941799448,0.5901394533305827,0.5312345910757741
2025-02-06 13:14:32.134697,5.3100000000000005,-2.34,0.8300000000000001,0.3719732968312915,0.19853120241435498,-0.11780972450961724
2025-02-06 13:14:32.243932,8.05,-3.0700000000000003,0.9400000000000001,0.5563236990731926,0.22471114119426994,0.9130253649495337
2025-02-06 13:14:32.352994,10.38,-3.95,0.68,0.8137597637423561,0.5486878835957173,1.114829059711378
2025-02-06 13:14:32.462296,6.21,-3.17,4.09,1.0559241974565694,-0.13308135546456762,-1.9885845164910392
2025-02-06 13:14:32.572888,6.73,-6.08,4.94,-0.5170537909033202,0.8759371183446542,-0.35997415822383044
2025-02-06 13:14:32.683242,9.21,-4.09,2.47,-1.5947946040098187,-1.670061928002074,-0.4243331743911214
2025-02-06 13:14:32.794586,9.31,-5.3100000000000005,-3.42,-1.076649982324002,0.2596177262341565,-0.4799655442984406
2025-02-06 13:14:32.903401,10.42,-4.16,1.87,-1.4169891864628963,-0.3392483733563978,-0.507236313860852
2025-02-06 13:14:33.012589,8.97,-4.9,3.13,-0.7810348402674625,-0.06544984694978735,-0.6217735460229799
2025-02-06 13:14:33.123227,12.08,-7.99,1.2,0.21925698728178766,-0.8999353955595761,-0.5552328682906961
2025-02-06 13:14:33.234081,9.67,-4.53,2.56,-0.34143003492139073,0.5323254218582705,0.96647607329186
2025-02-06 13:14:33.344642,6.44,-1.49,-0.8300000000000001,-0.18762289458939044,-0.4625122517784973,-0.7254024703601433
2025-02-06 13:14:33.453448,8.36,-2.66,0.38,0.23125612588924865,-0.018544123302439753,-0.019634954084936207
2025-02-06 13:14:33.562282,11.46,-4.0,-0.72,0.830122225479803,-0.17889624832941878,-0.26070855701665296
2025-02-06 13:14:33.672329,9.05,-5.33,1.85,0.2454369260617026,-0.3370667117914049,0.10144726277217041
2025-02-06 13:14:33.783143,6.96,-2.98,0.43,0.5519603759432067,-0.2912518189265537,-0.1265363707695889
2025-02-06 13:14:33.893104,8.35,-2.11,0.22,0.559596191420682,-0.6730425928003133,-0.44833145160604343
2025-02-06 13:14:34.003199,9.36,-3.87,1.3900000000000001,0.30543261909900765,0.17562375598192942,-0.10471975511965978
2025-02-06 13:14:34.112062,8.01,-2.27,-0.91,0.9206611804270088,0.20507618710933373,0.19853120241435498
2025-02-06 13:14:34.220910,7.87,-4.24,-1.58,1.4584407561977617,-1.0875582901489667,-0.6381360077604268
2025-02-06 13:14:34.332292,10.34,-3.68,-2.19,1.189005552921137,-0.08508480103472356,0.6065019150680295
2025-02-06 13:14:34.443258,8.5,-3.64,-0.89,0.7188574856651645,-0.3294308963139297,-0.00545415391248228
2025-02-06 13:14:34.554568,9.27,-4.67,0.72,1.189005552921137,-0.16689710972195776,0.18762289458939044
2025-02-06 13:14:34.664056,8.65,-4.05,1.22,1.0101093045917182,-0.3370667117914049,-0.3817907738737596
2025-02-06 13:14:34.773825,10.290000000000001,-4.47,-1.69,0.7864889941799448,-0.4265148359561143,0.18653206380689397
2025-02-06 13:14:34.885304,8.57,-4.58,1.29,0.37960911230876665,-0.2716168648416175,-0.18653206380689397
2025-02-06 13:14:34.996200,10.0,-3.2800000000000002,-2.59,0.543233729683235,0.12108221685710661,0.3948807432637171
2025-02-06 13:14:35.107046,8.76,-2.72,-0.55,0.4701480672559725,-0.050178215994836975,-0.49960049838337683
2025-02-06 13:14:35.216269,9.72,-4.18,1.06,0.13199052468207118,0.17671458676442586,0.1712604328519436
2025-02-06 13:14:35.324826,9.28,-2.41,-1.1,0.06217735460229799,0.19634954084936207,-0.136353847812057
2025-02-06 13:14:35.434924,8.78,-2.39,-0.92,0.12980886311707826,0.39706240482870997,-0.11235557059713497
2025-02-06 13:14:35.545622,8.92,-1.75,-1.49,-0.20398535632683726,-0.04254240051736178,-0.24434609527920614
2025-02-06 13:14:35.656128,10.38,-1.33,-2.42,-0.23343778745424157,0.2945243112740431,0.2181661564992912
2025-02-06 13:14:35.765439,9.16,-2.84,1.02,-0.8879362569521152,0.4068798818711781,0.15162547876700738
2025-02-06 13:14:35.874342,10.77,-2.45,1.85,-0.4526947747360292,-0.11780972450961724,-0.30543261909900765
2025-02-06 13:14:35.983543,10.42,-6.0200000000000005,0.2,-0.5388704065532492,0.5181446216858165,0.5683228376806536
2025-02-06 13:14:36.094381,10.3,-4.7,-2.23,-0.8093964406123704,0.6032294227205401,0.7123125009701857
2025-02-06 13:14:36.204784,6.01,-2.62,0.87,-1.2119129993535627,-0.09272061651219876,-0.030543261909900768
2025-02-06 13:14:36.315519,10.73,-3.86,-1.32,-0.4243331743911214,-0.031634092692397225,0.06544984694978735
2025-02-06 13:14:36.424511,7.6000000000000005,-2.7600000000000002,-4.79,-1.2620912153483996,-0.15707963267948966,-0.16798794050445423
2025-02-06 13:14:36.533500,9.06,-3.5100000000000002,-3.4,-0.8333947178272924,0.4286964975211072,0.18762289458939044
2025-02-06 13:14:36.644822,8.93,-3.11,-0.4,-1.0461067204141012,0.20943951023931956,-0.36106498900632694
2025-02-06 13:14:36.755495,11.01,-4.95,0.34,-0.8770279491271507,0.6523168079328807,0.031634092692397225
2025-02-06 13:14:36.866250,9.51,-4.08,-0.8300000000000001,-0.9370236421644557,-0.013089969389957472,-0.23889194136672387
2025-02-06 13:14:36.975169,8.16,-3.58,-1.1500000000000001,-0.39924406639370286,-0.23452861823673804,-0.657770961845363
2025-02-06 13:14:37.084129,9.58,-4.49,-0.99,-0.27052603405912107,-0.050178215994836975,-0.49632800603588745
2025-02-06 13:14:37.194615,9.27,-3.2800000000000002,-0.11,-0.2301652951067522,0.2901609881440573,0.37960911230876665
2025-02-06 13:14:37.305776,10.040000000000001,-2.83,-0.11,0.13744467859455345,-0.04581489286485115,0.12871803233458182
2025-02-06 13:14:37.417144,12.24,-3.24,-1.93,0.7483099167925688,0.19853120241435498,0.04581489286485115
2025-02-06 13:14:37.526272,10.75,-4.65,0.09,-0.44724062082354693,0.7952156404399164,-0.028361600344907856
2025-02-06 13:14:37.635254,7.94,-2.99,-1.9000000000000001,-0.2476185876266955,0.657770961845363,-0.24870941840919197
2025-02-06 13:14:37.744289,7.8,-0.9,-1.09,-0.23889194136672387,0.015271630954950384,-0.5748678223756323
2025-02-06 13:14:37.854793,9.49,-0.41000000000000003,0.3,-0.12762720155208535,0.016362461737446838,-0.5214171140333059
2025-02-06 13:14:37.965257,10.71,-1.3900000000000001,0.72,-0.03381575425739013,0.013089969389957472,-0.17780541754692233
2025-02-06 13:14:38.076333,11.38,-3.0700000000000003,1.51,0.5890486225480862,0.31634092692397225,0.1559888018969932
2025-02-06 13:14:38.185312,8.290000000000001,-1.98,0.09,0.17889624832941878,0.07635815477475191,0.08399397025222712
2025-02-06 13:14:38.294398,7.69,-1.28,0.22,0.2792526803190927,-0.2628902185816459,-0.2650718801466388
2025-02-06 13:14:38.405145,9.06,-1.09,-2.15,-0.03490658503988659,-0.2792526803190927,-0.28579766501407144
2025-02-06 13:14:38.515894,11.47,-3.11,-1.1500000000000001,-0.8235772407848243,-0.210530341021816,-0.14180800172453928
2025-02-06 13:14:38.626779,9.44,-3.56,-0.38,-0.47778388273344774,0.38724492778624187,0.08835729338221293
2025-02-06 13:14:38.735667,7.71,-1.07,-0.35000000000000003,-0.3785182815262702,0.34797501961636945,0.21380283336930536
2025-02-06 13:14:38.844654,8.65,-1.25,1.03,-0.3370667117914049,0.2628902185816459,-0.017453292519943295
2025-02-06 13:14:38.954871,10.59,-2.12,0.45,0.028361600344907856,0.2007128639793479,-0.02399827721492203
2025-02-06 13:14:39.065535,8.98,-2.08,0.08,0.09272061651219876,-0.6861325621902709,-0.15162547876700738
2025-02-06 13:14:39.176012,9.39,-2.71,-0.13,0.47778388273344774,-0.4985096676008804,-0.18980455615438332
2025-02-06 13:14:39.285818,7.63,-1.75,0.67,0.791943148092427,-0.20943951023931956,-0.28579766501407144
2025-02-06 13:14:39.394898,9.63,-1.42,-1.05,0.4276056667386107,-0.3097959422289935,-0.23234695667174513
2025-02-06 13:14:39.504035,11.1,-3.02,-0.66,0.13308135546456762,-0.06654067773228381,-0.3141592653589793
2025-02-06 13:14:39.615029,11.72,-5.13,0.5,0.2530727415391778,0.38942658935123475,0.5170537909033202
2025-02-06 13:14:39.725907,7.23,-0.31,-2.71,0.2203478180642841,0.028361600344907856,-0.32834006553143325
2025-02-06 13:14:39.836729,7.41,-0.91,-1.1,-0.24870941840919197,0.3948807432637171,0.1810779098944117
2025-02-06 13:14:39.945539,9.36,-0.7000000000000001,-1.46,0.003272492347489368,-0.05999569303730508,-0.17889624832941878
2025-02-06 13:14:40.054547,9.58,-2.56,-0.18,0.07090400086226964,-0.16144295580947549,-0.016362461737446838
2025-02-06 13:14:40.165550,8.76,-2.93,0.13,-0.2716168648416175,-0.7450374244450795,-0.3643374813538163
2025-02-06 13:14:40.276501,7.42,-1.6500000000000001,0.22,0.13526301702956053,-0.4886921905584123,-0.11126473981463851
2025-02-06 13:14:40.387453,8.46,-1.43,-0.64,0.136353847812057,-0.25089107997418486,-0.22580197197676638
2025-02-06 13:14:40.496429,11.83,-3.5700000000000003,0.17,-0.20289452554434081,0.23452861823673804,0.4919646829059016
2025-02-06 13:14:40.606126,11.120000000000001,-4.21,-0.15,-0.3010692959690218,0.05781403147231216,0.5868669609830933
2025-02-06 13:14:40.717165,8.36,-2.1,-1.52,-0.41996985126113556,0.11780972450961724,0.24652775684419906
2025-02-06 13:14:40.827986,8.1,-0.97,-0.48,-0.33597588100890846,0.24325526449670967,-0.16035212502697901
2025-02-06 13:14:40.938497,10.23,-2.5500000000000003,-0.18,-0.16471544815696484,0.10471975511965978,-0.41233403578366035
2025-02-06 13:14:41.048078,9.77,-2.25,2.04,0.3392483733563978,0.1538071403320003,-0.5988660995905544
2025-02-06 13:14:41.157220,10.35,-3.5500000000000003,0.63,-0.030543261909900768,-0.41015237421866746,-0.09272061651219876
2025-02-06 13:14:41.265629,8.78,-2.65,0.58,0.12980886311707826,0.028361600344907856,0.31634092692397225
2025-02-06 13:14:41.376134,7.9,-0.63,-0.86,0.0818123086872342,0.09708393964218458,0.3174317577064687
2025-02-06 13:14:41.486874,9.790000000000001,-3.23,-1.18,-0.15707963267948966,0.20289452554434081,0.15271630954950383
2025-02-06 13:14:41.597768,9.52,-2.25,-2.42,-0.26398104936414235,-0.2530727415391778,0.18980455615438332
2025-02-06 13:14:41.706611,8.49,-1.96,-0.75,-0.5585053606381855,-0.3239767424014474,-0.017453292519943295
2025-02-06 13:14:41.815739,9.01,-1.6,0.41000000000000003,-0.6239552075879728,-0.04799655442984406,0.16798794050445423
2025-02-06 13:14:41.926580,9.21,-1.17,0.09,-0.09817477042468103,-0.09381144729469522,-0.19962203319685143
2025-02-06 13:14:42.037363,10.86,-3.22,0.81,0.05672320068981571,0.12980886311707826,-0.003272492347489368
2025-02-06 13:14:42.148283,14.18,-5.12,0.33,0.39269908169872414,0.35015668118136234,0.9959285044192643
2025-02-06 13:14:42.257067,9.68,-3.37,1.16,0.16471544815696484,0.41015237421866746,0.5290529295107811
2025-02-06 13:14:42.365951,8.41,-1.68,-0.25,0.5279620987282847,0.16144295580947549,0.07744898555724837
2025-02-06 13:14:42.475640,8.71,-2.0300000000000002,-0.9400000000000001,0.18544123302439752,0.14726215563702155,-0.08508480103472356
2025-02-06 13:14:42.586596,9.99,-2.64,-1.58,0.026179938779914945,-0.0818123086872342,-0.2585268954516601
2025-02-06 13:14:42.697505,8.55,-3.35,-4.46,-0.21380283336930536,-0.5170537909033202,-0.3665191429188092
2025-02-06 13:14:42.807665,8.24,-1.48,-0.98,-0.5083271446433485,-0.08617563181722002,-0.17671458676442586
2025-02-06 13:14:42.916546,8.13,-0.96,-0.61,-0.3839724354387525,0.21707532571679475,0.12980886311707826
2025-02-06 13:14:43.025563,11.71,-2.24,-0.46,-0.05781403147231216,0.5966844380255614,0.4286964975211072
2025-02-06 13:14:43.136173,9.07,-2.35,0.16,0.18435040224190105,-0.15926129424448257,0.06981317007977318
2025-02-06 13:14:43.247042,9.23,-2.6,-0.89,-0.2683443724941282,-0.19853120241435498,-0.06872233929727672
2025-02-06 13:14:43.357938,6.8100000000000005,-0.85,0.04,0.26398104936414235,-0.2181661564992912,-0.09926560120717749
2025-02-06 13:14:43.466906,9.33,-1.44,-0.1,0.0272707695624114,0.210530341021816,0.3861540970037454
2025-02-06 13:14:43.575909,11.67,-3.89,1.47,-0.3752457891787809,0.19962203319685143,0.3327033886614191
2025-02-06 13:14:43.686337,11.97,-3.17,0.0,-0.34143003492139073,0.3021601267515183,0.8486663487822428
2025-02-06 13:14:43.796656,9.96,-2.56,-0.5700000000000001,-0.47451139038595835,0.30652344988150415,0.12435470920459599
2025-02-06 13:14:43.907316,7.53,-0.47000000000000003,0.58,-0.3337942194439155,0.19416787928436915,-0.16798794050445423
2025-02-06 13:14:44.016130,8.98,-1.3800000000000001,0.64,0.07635815477475191,0.04363323129985824,-0.17453292519943295
2025-02-06 13:14:44.124303,9.57,-1.92,-0.31,0.2628902185816459,-0.16689710972195776,-0.2181661564992912
2025-02-06 13:14:44.233551,9.38,-3.35,-0.24,-0.08290313946973066,-0.7864889941799448,-0.6610434541928523
2025-02-06 13:14:44.344420,8.870000000000001,-2.44,0.53,0.29888763440402893,-0.3621558197888234,-0.28907015736156083
2025-02-06 13:14:44.458130,7.98,-0.66,-0.66,0.4526947747360292,-0.09708393964218458,0.1439896632895322
2025-02-06 13:14:44.567926,10.71,-2.44,-1.6400000000000001,-0.11126473981463851,-0.14508049407202864,-0.7014041931452212
2025-02-06 13:14:44.676108,8.3,-1.54,-1.45,-0.6305001922829515,0.23343778745424157,0.6108652381980153
2025-02-06 13:14:44.784957,9.35,-1.44,-1.46,-0.27379852640661045,-0.6839509006252779,-0.27598018797160334
2025-02-06 13:14:44.895481,9.450000000000001,-1.28,0.62,-0.346884188833873,-0.008726646259971648,-0.002181661564992912
2025-02-06 13:14:45.006062,8.98,-0.36,-0.42,0.17998707911191522,0.011999138607461015,-0.5443245604657315
2025-02-06 13:14:45.117042,9.870000000000001,-1.28,-0.71,0.33161255787892263,0.19634954084936207,-0.26398104936414235
2025-02-06 13:14:45.225909,13.33,-2.11,-0.2,0.2977968036215325,0.2912518189265537,0.5988660995905544
2025-02-06 13:14:45.339163,9.65,-2.23,1.4000000000000001,0.14180800172453928,0.358883327441334,0.49960049838337683
2025-02-06 13:14:45.448763,9.23,-0.55,-1.78,0.5137812985558308,-0.1308996938995747,0.22143864884678055
2025-02-06 13:14:45.557514,9.3,-1.4000000000000001,-1.1500000000000001,-0.20725784867432664,0.284706834231575,-0.5235987755982988
2025-02-06 13:14:45.668361,10.17,-0.46,-0.88,-0.003272492347489368,0.32070425005395803,0.18762289458939044
2025-02-06 13:14:45.777522,11.94,-2.62,-0.75,-0.1734420944169365,0.04145156973486533,0.26070855701665296
2025-02-06 13:14:45.886609,8.76,-1.36,-0.9400000000000001,-0.3752457891787809,0.28907015736156083,0.18653206380689397
2025-02-06 13:14:45.995832,8.58,-1.0,-0.56,-0.14508049407202864,0.34143003492139073,-0.09926560120717749
2025-02-06 13:14:46.106518,8.26,-0.5,-0.49,0.030543261909900768,0.05999569303730508,-0.11126473981463851
2025-02-06 13:14:46.216969,9.56,-1.45,1.3,0.4406956361285682,-0.24870941840919197,-0.050178215994836975
2025-02-06 13:14:46.327849,10.1,-1.29,-1.77,0.16580627893946132,-0.5137812985558308,-0.27707101875409984
2025-02-06 13:14:46.436833,9.67,-2.07,1.45,0.24216443371421323,-0.06981317007977318,-0.04799655442984406
2025-02-06 13:14:46.545931,8.84,-0.27,-1.09,0.14180800172453928,-0.2694352032766246,-0.22143864884678055
2025-02-06 13:14:46.656860,10.65,-2.45,0.03,0.18653206380689397,-0.06544984694978735,-0.3665191429188092
2025-02-06 13:14:46.767430,8.78,-0.13,-3.13,-35.36037064540512,-0.4014257279586958,-0.5475970528132209
2025-02-06 13:14:46.878470,8.84,-0.45,-2.48,-0.28034351110158917,-0.46142142099600086,-0.17562375598192942
2025-02-06 13:14:46.987342,8.11,-0.45,-0.03,-0.35779249665883756,0.1265363707695889,0.001090830782496456
2025-02-06 13:14:47.096283,8.1,0.21,-0.37,-0.18762289458939044,0.06435901616729091,-0.03381575425739013
2025-02-06 13:14:47.206431,11.5,-1.82,0.3,0.030543261909900768,0.16689710972195776,0.17780541754692233
2025-02-06 13:14:47.317838,11.16,-1.4000000000000001,-1.69,0.4112432050011639,0.03599741582238305,0.4428772976935611
2025-02-06 13:14:47.428506,9.44,-0.84,-0.85,-0.002181661564992912,-0.03381575425739013,0.22907446432425577
2025-02-06 13:14:47.538123,7.08,-0.1,-0.28,0.25743606466916363,-0.4821472058634335,-0.19853120241435498
2025-02-06 13:14:47.646897,9.05,-0.64,-1.25,0.09817477042468103,-0.07744898555724837,-0.038179077387375956
2025-02-06 13:14:47.756257,10.21,-1.59,-1.3800000000000001,-0.20289452554434081,0.028361600344907856,0.09053895494720585
2025-02-06 13:14:47.867202,10.94,-2.17,-0.92,-0.6697701004528239,0.18216874067690814,0.7973973020049093
2025-02-06 13:14:47.978088,11.21,-2.62,-0.23,-0.45705809786601503,-0.23889194136672387,-0.1559888018969932
2025-02-06 13:14:48.089091,8.76,-0.51,-0.37,0.08835729338221293,-0.19525871006686563,-0.2301652951067522
2025-02-06 13:14:48.198196,8.4,-0.91,1.46,1.2893619849108109,-0.3621558197888234,-0.18871372537188688
2025-02-06 13:14:48.308067,8.66,-0.91,0.5700000000000001,2.398736890709707,-0.770126532442498,-0.19962203319685143
2025-02-06 13:14:48.418899,9.540000000000001,-2.63,-0.52,2.4696408915719763,-0.30652344988150415,0.38942658935123475
2025-02-06 13:14:48.529684,9.08,-1.24,-0.75,2.4183718447946427,-0.7243116395776468,-0.06872233929727672
2025-02-06 13:14:48.640869,9.39,-2.84,1.9000000000000001,2.301652951067522,-0.3370667117914049,-0.3370667117914049
2025-02-06 13:14:48.749914,9.57,-2.09,0.01,2.165299103255465,-0.5225079448158024,-0.22471114119426994
2025-02-06 13:14:48.858808,9.34,-2.0100000000000002,1.3,1.5915221116623293,-0.519235452468313,-0.27598018797160334
2025-02-06 13:14:48.969380,9.36,-3.13,0.25,1.6776977434795493,-0.4079707126536745,-0.32288591161895097
2025-02-06 13:14:49.079992,6.57,-2.02,0.55,1.8773197766764007,-0.15707963267948966,-0.7395832705325971
2025-02-06 13:14:49.190547,10.96,-3.97,-0.02,2.227476457857763,-0.06654067773228381,-0.06872233929727672
2025-02-06 13:14:49.299774,10.17,-3.88,-2.0100000000000002,2.5623615080841753,-0.24107360293171676,-0.5988660995905544
2025-02-06 13:14:49.408778,9.34,-3.98,-2.1,1.9351338081487128,0.032724923474893676,-0.4756022211684548
2025-02-06 13:14:49.517828,10.8,-4.47,1.3,1.9024088846738192,0.28688849579656794,0.015271630954950384
2025-02-06 13:14:49.628446,8.76,-2.39,-2.61,1.8500490071139892,-0.00545415391248228,-0.27052603405912107
2025-02-06 13:14:49.739955,10.51,-2.65,-1.35,1.1726430911836903,0.44178646691106466,0.29561514205653955
2025-02-06 13:14:49.849797,8.870000000000001,-0.75,-0.54,0.5770494839406252,-0.11126473981463851,0.08617563181722002
2025-02-06 13:14:49.958357,9.82,-0.75,-0.76,0.3643374813538163,-0.25089107997418486,0.020725784867432664
2025-02-06 13:14:50.067477,8.950000000000001,-2.24,0.29,-0.019634954084936207,-0.2378011105842274,-0.13962634015954636
2025-02-06 13:14:50.178261,10.21,0.65,-2.04,0.055632369907319255,-0.13308135546456762,-0.07744898555724837
2025-02-06 13:14:50.289155,8.040000000000001,0.34,-0.65,0.11344640137963143,-0.37960911230876665,-0.5225079448158024
2025-02-06 13:14:50.400058,9.18,-1.85,-0.21,0.23125612588924865,-0.06435901616729091,-0.009817477042468103
2025-02-06 13:14:50.508912,8.89,-1.31,-3.33,0.20507618710933373,-0.24652775684419906,-0.1461713248545251
2025-02-06 13:14:50.617913,8.97,-0.98,-1.01,0.19416787928436915,-0.6850417314077744,-0.4505131131710363
2025-02-06 13:14:50.727045,10.9,-1.37,0.4,0.8333947178272924,0.2378011105842274,0.1712604328519436
2025-02-06 13:14:50.837584,10.8,-0.35000000000000003,-2.37,0.9970193352017608,0.04363323129985824,0.2203478180642841
2025-02-06 13:14:50.948152,9.63,0.04,-1.58,0.6217735460229799,-0.022907446432425576,-0.08072147790473774
2025-02-06 13:14:51.058424,10.040000000000001,-0.85,-0.39,0.32288591161895097,0.03490658503988659,-0.04581489286485115
2025-02-06 13:14:51.167257,9.75,-1.05,-0.52,0.26616271092913524,-0.02399827721492203,-0.14508049407202864
2025-02-06 13:14:51.276347,9.65,-0.68,-1.32,0.3294308963139297,-0.01090830782496456,-0.23452861823673804
2025-02-06 13:14:51.386753,9.11,-0.37,-1.08,0.2683443724941282,-0.09381144729469522,-0.24216443371421323
2025-02-06 13:14:51.497261,9.27,-0.03,-1.01,0.1734420944169365,0.0545415391248228,0.004363323129985824
2025-02-06 13:14:51.608179,10.19,-0.77,-1.3900000000000001,0.15817046346198613,0.12871803233458182,0.030543261909900768
2025-02-06 13:14:51.716937,9.4,-0.27,-1.26,0.19962203319685143,0.12435470920459599,-0.02399827721492203
2025-02-06 13:14:51.825778,9.33,-0.09,-0.81,-0.08072147790473774,0.09817477042468103,-0.037088246604879506
2025-02-06 13:14:51.934733,9.43,-0.78,-0.22,-0.03599741582238305,-0.08944812416470939,-0.03599741582238305
2025-02-06 13:14:52.045532,9.32,0.02,-1.23,-0.03599741582238305,-0.05890486225480862,0.20180369476184434
2025-02-06 13:14:52.157274,9.97,-0.39,-1.07,-0.09926560120717749,-0.004363323129985824,0.17453292519943295
2025-02-06 13:14:52.267209,10.38,-0.45,-1.62,-0.23234695667174513,0.08726646259971647,0.014180800172453928
2025-02-06 13:14:52.376336,9.01,-0.45,-0.79,-0.358883327441334,0.007635815477475192,0.10253809355466686
2025-02-06 13:14:52.485212,9.55,-0.85,0.03,-0.21380283336930536,-0.019634954084936207,0.00545415391248228
2025-02-06 13:14:52.595838,9.86,-1.1,-1.32,-0.45705809786601503,-0.20180369476184434,0.06763150851478027
2025-02-06 13:14:52.706639,10.23,-1.37,-1.08,-0.3719732968312915,-0.019634954084936207,0.1439896632895322
2025-02-06 13:14:52.817496,9.18,-0.81,-0.43,-0.05235987755982989,0.001090830782496456,-0.14944381720201447
2025-02-06 13:14:52.926462,10.02,-1.8,-0.24,-0.23671027980173096,-0.020725784867432664,0.2912518189265537
2025-02-06 13:14:53.035360,9.67,-1.6,-1.22,-0.4886921905584123,0.09053895494720585,0.13526301702956053
2025-02-06 13:14:53.145427,10.28,-1.41,-1.1300000000000001,-0.4854196982109229,0.16035212502697901,0.05999569303730508
2025-02-06 13:14:53.256071,10.1,-1.21,-1.19,-0.2912518189265537,0.2628902185816459,0.10144726277217041
2025-02-06 13:14:53.366681,9.19,-0.2,-2.41,-0.3687008044838021,0.09381144729469522,-0.04908738521234052
2025-02-06 13:14:53.475904,9.67,-1.59,-0.35000000000000003,-0.36106498900632694,0.06544984694978735,0.08399397025222712
2025-02-06 13:14:53.584910,9.28,-1.1300000000000001,-0.77,-0.2083486794568231,-0.15707963267948966,0.05890486225480862
2025-02-06 13:14:53.693930,10.18,-1.27,-1.16,-0.15926129424448257,-0.0818123086872342,-0.15489797111449674
2025-02-06 13:14:53.804560,9.44,-0.66,-1.6600000000000001,-0.29561514205653955,0.09708393964218458,0.04036073895236887
2025-02-06 13:14:53.915035,9.44,-0.45,-1.35,-0.30325095753401476,0.29888763440402893,0.06872233929727672
2025-02-06 13:14:54.025704,9.61,-0.87,-0.9500000000000001,-0.36324665057131983,0.14289883250703572,0.10471975511965978
2025-02-06 13:14:54.134541,10.16,-0.86,-1.12,-0.4308781590861001,-0.004363323129985824,0.136353847812057
2025-02-06 13:14:54.243551,10.13,-1.1300000000000001,-0.23,-0.10799224746714914,0.39924406639370286,0.09708393964218458
2025-02-06 13:14:54.353931,10.31,-0.78,-0.29,0.030543261909900768,0.19525871006686563,0.009817477042468103
2025-02-06 13:14:54.463970,9.39,-0.8200000000000001,-1.16,-0.02399827721492203,0.1559888018969932,0.12980886311707826
2025-02-06 13:14:54.574292,8.34,0.13,-1.4000000000000001,-0.02181661564992912,-0.7286749627076325,-0.0545415391248228
2025-02-06 13:14:54.683441,9.13,0.29,-2.5300000000000002,0.26725354171163174,-0.24652775684419906,-0.2596177262341565
2025-02-06 13:14:54.792508,9.4,-0.05,-1.51,0.21925698728178766,-0.33161255787892263,-0.3327033886614191
2025-02-06 13:14:54.901389,9.8,-0.73,-0.84,0.18980455615438332,-0.05235987755982989,-0.037088246604879506
2025-02-06 13:14:55.011816,9.75,-0.54,-1.16,-0.06654067773228381,-0.008726646259971648,0.04145156973486533
2025-02-06 13:14:55.122549,9.82,-0.41000000000000003,-0.67,-0.08290313946973066,-0.07744898555724837,0.07963064712224129
2025-02-06 13:14:55.233254,9.59,-0.44,-0.41000000000000003,-0.12980886311707826,0.08508480103472356,0.11999138607461016
2025-02-06 13:14:55.342130,9.91,-0.46,-0.11,-0.0916297857297023,0.05235987755982989,0.09599310885968812
2025-02-06 13:14:55.453157,9.08,-0.47000000000000003,-0.41000000000000003,-0.03381575425739013,-0.020725784867432664,0.050178215994836975
2025-02-06 13:14:55.563002,9.450000000000001,-0.02,-1.18,-0.08617563181722002,-0.006544984694978736,0.017453292519943295
2025-02-06 13:14:55.673704,8.81,0.01,-0.74,-0.06435901616729091,-0.17671458676442586,-0.07090400086226964
2025-02-06 13:14:55.784709,9.25,-0.23,-0.48,-0.14180800172453928,-0.210530341021816,-0.011999138607461015
2025-02-06 13:14:55.893499,9.67,-0.03,-2.06,-0.04254240051736178,0.08944812416470939,0.21162117180431245
2025-02-06 13:14:56.003190,9.24,0.23,-0.56,-0.18653206380689397,0.15162547876700738,0.10362892433716332
2025-02-06 13:14:56.113200,8.97,0.29,0.79,-0.36106498900632694,0.09272061651219876,0.17016960206944712
2025-02-06 13:14:56.223639,10.13,0.55,0.22,-0.3021601267515183,0.32070425005395803,0.3567016658763411
2025-02-06 13:14:56.334351,9.59,0.2,0.33,-0.2596177262341565,0.06435901616729091,0.2617993877991494
2025-02-06 13:14:56.444049,9.86,0.62,-0.79,-0.08944812416470939,0.004363323129985824,0.16580627893946132
2025-02-06 13:14:56.553039,10.5,0.56,0.12,-0.09053895494720585,0.05781403147231216,0.25743606466916363
2025-02-06 13:14:56.662156,10.33,0.5,-1.75,0.24107360293171676,-0.2454369260617026,-0.32070425005395803
2025-02-06 13:14:56.772674,10.18,-1.69,-1.48,0.04145156973486533,-0.7581273938350369,-0.6654067773228381
2025-02-06 13:14:56.883519,9.15,-0.45,-1.49,-0.0916297857297023,0.29888763440402893,0.23452861823673804
2025-02-06 13:14:56.994461,8.98,-0.12,-0.49,0.06217735460229799,-0.002181661564992912,-0.09053895494720585
2025-02-06 13:14:57.103330,9.24,0.12,-0.96,0.05999569303730508,-0.06544984694978735,-0.04799655442984406
2025-02-06 13:14:57.212446,10.38,0.0,-1.09,0.055632369907319255,-0.05235987755982989,0.011999138607461015
2025-02-06 13:14:57.323154,10.41,-1.56,-2.82,0.14726215563702155,-0.0272707695624114,0.04036073895236887
2025-02-06 13:14:57.433961,8.290000000000001,-0.47000000000000003,-2.64,-0.14835298641951802,0.1461713248545251,0.003272492347489368
2025-02-06 13:14:57.544878,8.790000000000001,0.03,-1.27,-0.06544984694978735,0.055632369907319255,-0.07963064712224129
2025-02-06 13:14:57.653643,9.66,-0.1,-0.76,-0.1090830782496456,0.15926129424448257,-0.11999138607461016
2025-02-06 13:14:57.762669,12.030000000000001,-0.89,2.29,0.13308135546456762,0.2999784651865254,-0.05235987755982989
2025-02-06 13:14:57.872023,11.790000000000001,-2.05,0.53,0.15271630954950383,-0.015271630954950384,-0.05235987755982989
2025-02-06 13:14:57.982655,9.81,-1.47,1.0,0.1712604328519436,0.5083271446433485,0.3817907738737596
2025-02-06 13:14:58.093196,8.6,-0.45,0.4,0.29343348049154666,0.022907446432425576,-0.12980886311707826
2025-02-06 13:14:58.203562,9.18,-0.7000000000000001,-1.02,0.006544984694978736,0.10799224746714914,0.17780541754692233
2025-02-06 13:14:58.312453,8.870000000000001,-0.52,-2.64,-0.4276056667386107,0.18653206380689397,0.8355763793922852
2025-02-06 13:14:58.421353,9.870000000000001,-0.78,-2.98,-0.43524148221608594,-0.28579766501407144,0.3043417883165112
2025-02-06 13:14:58.531856,8.65,-0.4,-1.22,-0.41996985126113556,-0.5345070834232635,-0.32615840396644036
2025-02-06 13:14:58.642512,8.77,-0.02,-0.64,-0.23125612588924865,-0.05126904677733343,-0.2181661564992912
2025-02-06 13:14:58.753409,10.620000000000001,-0.63,-0.74,-0.038179077387375956,0.0818123086872342,-0.18653206380689397
2025-02-06 13:14:58.862216,11.28,-1.1500000000000001,-1.01,0.20725784867432664,-0.007635815477475192,0.34470252726888007
2025-02-06 13:14:58.971107,10.3,-1.25,0.77,-0.15271630954950383,-0.014180800172453928,0.2912518189265537
2025-02-06 13:14:59.080489,7.7700000000000005,0.49,-0.62,-0.011999138607461015,-0.39269908169872414,-0.11344640137963143
2025-02-06 13:14:59.191509,8.98,0.04,-1.29,-0.04363323129985824,-0.16798794050445423,-0.2792526803190927
2025-02-06 13:14:59.302586,11.75,-0.28,-0.22,0.15926129424448257,0.19198621771937624,-0.10690141668465268
2025-02-06 13:14:59.412788,10.11,-1.0,-1.44,-0.011999138607461015,-0.14726215563702155,-0.30652344988150415
2025-02-06 13:14:59.521817,8.91,-0.14,-1.4000000000000001,-0.14835298641951802,0.04799655442984406,0.04690572364734761
2025-02-06 13:14:59.630865,7.96,0.44,-0.74,-0.11235557059713497,0.1636246173744684,0.03599741582238305
2025-02-06 13:14:59.741652,9.700000000000001,0.51,-0.48,0.08944812416470939,0.25743606466916363,0.11999138607461016
2025-02-06 13:14:59.852502,9.6,-0.2,1.12,0.2476185876266955,-0.3916082509162277,-0.46796640569097964
2025-02-06 13:14:59.963841,9.21,-0.77,0.23,-0.13853550937704992,-0.39051742013373125,-0.028361600344907856
2025-02-06 13:15:00.072710,7.91,-0.16,0.48,0.1341721862470641,-0.557414529855689,-0.22471114119426994
2025-02-06 13:15:00.181738,9.540000000000001,0.22,-0.76,0.2530727415391778,-0.2454369260617026,-0.18653206380689397
2025-02-06 13:15:00.292653,11.18,-0.91,-0.4,0.11344640137963143,0.18435040224190105,-0.06763150851478027
2025-02-06 13:15:00.403418,11.870000000000001,-2.62,1.3,-0.3294308963139297,0.7613998861825263,0.5945027764605685
2025-02-06 13:15:00.514437,9.22,-0.63,0.06,-0.11126473981463851,0.1538071403320003,0.5388704065532492
2025-02-06 13:15:00.623351,8.620000000000001,0.64,-0.02,-0.04254240051736178,0.00545415391248228,0.02181661564992912
2025-02-06 13:15:00.732331,9.39,0.09,-0.16,0.24107360293171676,0.15707963267948966,-0.18653206380689397
2025-02-06 13:15:00.842330,11.23,-0.79,1.22,0.5999569303730508,0.35124751196385884,-0.3141592653589793
2025-02-06 13:15:00.953056,9.700000000000001,-1.1500000000000001,-1.27,0.2781618495365963,-0.41996985126113556,-0.3392483733563978
2025-02-06 13:15:01.063659,7.7,-0.16,0.05,0.3043417883165112,-0.030543261909900768,0.02945243112740431
2025-02-06 13:15:01.173445,9.8,-0.02,-1.03,0.3425208657038872,-0.009817477042468103,-0.12544553998709243
2025-02-06 13:15:01.282291,9.39,-0.25,-2.09,0.039269908169872414,0.21271200258680892,0.055632369907319255
2025-02-06 13:15:01.391334,9.46,-0.72,-3.3000000000000003,-0.6806784082777885,0.16689710972195776,0.6523168079328807
2025-02-06 13:15:01.501732,10.47,-0.5700000000000001,-1.41,-0.37742745074377376,0.19744037163185854,0.33161255787892263
2025-02-06 13:15:01.612455,8.86,-0.14,-0.49,-0.3883357585687383,0.31306843457648287,0.2552544031041707
2025-02-06 13:15:01.723425,8.18,0.46,-0.24,-0.025089107997418487,-0.017453292519943295,-0.2519819107566813
2025-02-06 13:15:01.832412,11.61,-1.01,-0.61,0.05781403147231216,0.20180369476184434,0.11235557059713497
2025-02-06 13:15:01.941232,13.8,-2.13,1.17,0.18653206380689397,0.3643374813538163,0.6610434541928523
2025-02-06 13:15:02.051878,9.83,-1.34,1.02,-0.032724923474893676,0.3523383427463553,0.3621558197888234
2025-02-06 13:15:02.162292,8.47,0.24,-0.32,0.16253378659197193,-0.16580627893946132,-0.09599310885968812
2025-02-06 13:15:02.273121,8.93,-0.07,-0.6,0.017453292519943295,-0.09926560120717749,-0.1505346479845109
2025-02-06 13:15:02.382293,9.47,-0.17,-1.77,0.25634523388666713,-0.18871372537188688,-0.16907877128695067
2025-02-06 13:15:02.491320,9.71,-1.34,-2.4,-0.1439896632895322,-0.2814343418840856,0.001090830782496456
2025-02-06 13:15:02.600477,8.89,-0.18,-1.49,-0.23234695667174513,-0.055632369907319255,0.11126473981463851
2025-02-06 13:15:02.711076,8.67,-0.02,-0.49,-0.038179077387375956,0.1090830782496456,-0.18980455615438332
2025-02-06 13:15:02.821702,10.61,-0.84,-0.3,0.29670597283903605,0.014180800172453928,-0.19853120241435498
2025-02-06 13:15:02.932601,8.94,0.2,-2.08,0.34033920413889424,-0.12980886311707826,0.4046982203061852
2025-02-06 13:15:03.041631,10.13,-1.46,-0.36,-0.15489797111449674,0.08944812416470939,0.3436116964863836
2025-02-06 13:15:03.150636,8.08,-0.08,-0.2,0.0916297857297023,-0.2945243112740431,-0.061086523819801536
2025-02-06 13:15:03.261145,8.950000000000001,-0.16,-0.73,-0.10799224746714914,-0.04036073895236887,-0.22143864884678055
2025-02-06 13:15:03.371894,11.38,-1.05,0.07,0.04581489286485115,0.0818123086872342,-0.11344640137963143
2025-02-06 13:15:03.482776,11.5,-2.27,0.12,0.025089107997418487,0.050178215994836975,0.11453723216212788
2025-02-06 13:15:03.591535,9.02,-0.68,-1.22,-0.1538071403320003,-0.03490658503988659,-0.15489797111449674
2025-02-06 13:15:03.700492,8.38,-0.06,-0.85,-0.07417649320975901,0.20616701789183017,-0.20398535632683726
2025-02-06 13:15:03.811307,10.05,-0.36,-0.08,0.05126904677733343,0.2945243112740431,-0.06654067773228381
2025-02-06 13:15:03.922141,8.02,-0.1,-0.91,0.4308781590861001,0.22471114119426994,-0.23343778745424157
2025-02-06 13:15:04.032784,8.700000000000001,0.41000000000000003,-2.62,0.18216874067690814,-0.607592745850526,-0.2203478180642841
2025-02-06 13:15:04.142618,7.63,0.36,-1.05,0.16689710972195776,-0.5083271446433485,-0.25089107997418486
2025-02-06 13:15:04.251586,8.4,0.56,-1.58,0.09926560120717749,-0.3959715740462135,-0.5126904677733343
2025-02-06 13:15:04.360522,11.6,-1.24,-0.5700000000000001,0.008726646259971648,-0.1090830782496456,-0.27052603405912107
2025-02-06 13:15:04.471159,12.86,-1.79,0.0,-0.16798794050445423,0.10253809355466686,0.20725784867432664
2025-02-06 13:15:04.581774,9.09,-0.88,-1.03,-0.2923426497090502,-0.1461713248545251,-0.08835729338221293
2025-02-06 13:15:04.692462,8.24,-0.13,-0.9,0.015271630954950384,-0.03599741582238305,-0.17998707911191522
2025-02-06 13:15:04.801460,9.16,-0.47000000000000003,-1.21,0.031634092692397225,0.09817477042468103,0.04363323129985824
2025-02-06 13:15:04.910276,10.75,-0.11,0.92,0.30870511144649704,0.2181661564992912,-0.1189005552921137
2025-02-06 13:15:05.020438,10.17,-1.1400000000000001,-0.85,0.050178215994836975,-0.19634954084936207,-0.2999784651865254
2025-02-06 13:15:05.131512,8.97,-0.76,0.8,0.22362031041177347,0.06872233929727672,-0.04799655442984406
2025-02-06 13:15:05.242765,8.89,-0.12,-0.89,0.23561944901923448,0.07853981633974483,0.06654067773228381
2025-02-06 13:15:05.351887,9.65,-0.07,-1.6600000000000001,-0.08617563181722002,0.1538071403320003,-0.01090830782496456
2025-02-06 13:15:05.460836,9.46,-0.05,-2.02,-0.31306843457648287,0.16144295580947549,-0.14508049407202864
2025-02-06 13:15:05.569667,9.450000000000001,0.2,-2.99,-0.3839724354387525,-0.04363323129985824,0.32179508083645453
2025-02-06 13:15:05.680108,9.11,-0.4,-0.61,-0.21271200258680892,0.015271630954950384,0.23889194136672387
2025-02-06 13:15:05.790557,8.09,0.51,-1.48,-0.022907446432425576,-0.1559888018969932,-0.1341721862470641
2025-02-06 13:15:05.901347,10.63,-0.08,-2.44,0.12435470920459599,-0.014180800172453928,-0.21925698728178766
2025-02-06 13:15:06.010178,11.68,-0.93,-0.5,0.0272707695624114,0.1636246173744684,0.6043202535030366
2025-02-06 13:15:06.119053,9.450000000000001,-1.03,-0.62,-0.15817046346198613,-0.10362892433716332,0.24107360293171676
2025-02-06 13:15:06.229908,9.41,-0.49,-0.42,0.04908738521234052,0.031634092692397225,0.1636246173744684
2025-02-06 13:15:06.340415,8.89,-0.07,-1.3,0.07308566242726255,-0.009817477042468103,-0.19198621771937624
2025-02-06 13:15:06.451364,11.27,0.34,-1.46,0.022907446432425576,0.022907446432425576,-0.32834006553143325
2025-02-06 13:15:06.560149,9.57,-1.43,-0.71,-0.27379852640661045,-0.25416357232167425,-0.19744037163185854
2025-02-06 13:15:06.668927,8.73,0.28,-2.25,-0.07853981633974483,-0.34143003492139073,-0.04254240051736178
2025-02-06 13:15:06.778572,7.930000000000001,0.39,-1.08,-0.21271200258680892,0.03599741582238305,-0.22252947962927702
2025-02-06 13:15:06.889081,10.36,-0.1,-0.05,-0.014180800172453928,0.1341721862470641,-0.09708393964218458
2025-02-06 13:15:06.999936,8.9,0.25,-1.12,0.2781618495365963,-0.02181661564992912,-0.10035643198967395
2025-02-06 13:15:07.110200,8.9,-0.31,-1.29,-0.23561944901923448,-0.3108867730114899,0.02181661564992912
2025-02-06 13:15:07.219031,7.95,-0.28,-0.46,0.003272492347489368,-0.22689280275926285,-0.3425208657038872
2025-02-06 13:15:07.328027,8.24,0.65,-1.05,0.05345070834232634,-0.12217304763960307,-0.33597588100890846
2025-02-06 13:15:07.438709,11.08,-0.24,-0.46,-0.11780972450961724,-0.14180800172453928,-0.19634954084936207
2025-02-06 13:15:07.549284,12.4,-1.84,0.27,-0.6206827152404835,-0.5268712679457882,0.21380283336930536
2025-02-06 13:15:07.660555,10.21,-0.77,-1.24,0.03381575425739013,0.4930555136883981,0.9850201965942997
2025-02-06 13:15:07.769580,10.01,-0.21,-0.22,-0.039269908169872414,0.12435470920459599,-0.13962634015954636
2025-02-06 13:15:07.878447,9.85,0.14,-0.68,0.23125612588924865,0.2399827721492203,-0.022907446432425576
2025-02-06 13:15:07.989111,9.870000000000001,0.1,-0.31,0.5345070834232635,0.008726646259971648,-0.495237175253391
2025-02-06 13:15:08.099586,9.09,-0.47000000000000003,-0.37,0.08835729338221293,-0.43196898986859655,-0.13853550937704992
2025-02-06 13:15:08.210091,7.53,0.17,-0.1,0.37960911230876665,-0.17671458676442586,-0.09817477042468103
2025-02-06 13:15:08.319860,7.96,0.63,-1.31,0.35452000431134817,-0.12980886311707826,-0.23671027980173096
2025-02-06 13:15:08.428996,11.35,-1.26,-1.04,-0.04690572364734761,0.28579766501407144,0.4068798818711781
2025-02-06 13:15:08.538072,13.05,-2.08,-0.66,-0.39706240482870997,0.5268712679457882,1.0842857978014773
2025-02-06 13:15:08.648565,9.450000000000001,-1.4000000000000001,-0.23,-0.06654067773228381,0.13526301702956053,0.004363323129985824
2025-02-06 13:15:08.759253,8.07,-0.09,-0.7000000000000001,-0.09817477042468103,0.10144726277217041,-0.12980886311707826
2025-02-06 13:15:08.870196,8.06,0.54,-0.91,0.028361600344907856,-0.020725784867432664,-0.2552544031041707
2025-02-06 13:15:08.979018,10.14,-0.26,0.56,0.13962634015954636,0.11671889372712078,-0.2945243112740431
2025-02-06 13:15:09.088041,10.200000000000001,-1.93,-0.5700000000000001,-0.028361600344907856,-0.4734205596034619,-0.38942658935123475
2025-02-06 13:15:09.198724,8.13,-0.54,-0.06,0.07090400086226964,0.0,0.15707963267948966
2025-02-06 13:15:09.309525,8.5,-0.24,-0.74,0.08944812416470939,0.007635815477475192,0.03490658503988659
2025-02-06 13:15:09.420614,10.56,-1.6400000000000001,-1.3800000000000001,0.017453292519943295,0.025089107997418487,0.04908738521234052
2025-02-06 13:15:09.529421,8.49,-0.38,-2.87,-0.38288160465625604,-0.05672320068981571,0.05781403147231216
2025-02-06 13:15:09.638399,9.71,-1.1,-1.51,-0.2628902185816459,-0.13199052468207118,0.27379852640661045
2025-02-06 13:15:09.747995,8.6,0.19,-0.85,-0.3916082509162277,-0.3959715740462135,-0.03490658503988659
2025-02-06 13:15:09.858474,9.35,-0.15,-0.46,-0.11235557059713497,-0.3141592653589793,-0.29670597283903605
2025-02-06 13:15:09.968959,11.97,-2.13,-0.25,0.08399397025222712,-0.10471975511965978,-0.3719732968312915
2025-02-06 13:15:10.079429,12.94,-1.58,-1.07,0.3272492347489368,0.3523383427463553,0.5225079448158024
2025-02-06 13:15:10.188480,10.76,-2.22,0.52,0.12762720155208535,0.23234695667174513,0.4166973589136462
2025-02-06 13:15:10.297370,8.09,-0.06,-1.02,0.28361600344907856,0.0916297857297023,0.031634092692397225
2025-02-06 13:15:10.407878,9.16,-0.93,-1.6,0.07744898555724837,0.16907877128695067,0.09053895494720585
2025-02-06 13:15:10.518348,9.56,-0.43,-1.73,0.24434609527920614,0.02399827721492203,-0.10253809355466686
2025-02-06 13:15:10.629262,9.59,-1.47,-3.19,-0.2083486794568231,-0.09381144729469522,0.24434609527920614
2025-02-06 13:15:10.738095,8.31,-0.01,-1.57,-0.23452861823673804,0.032724923474893676,0.031634092692397225
2025-02-06 13:15:10.846974,8.370000000000001,0.15,-1.44,-0.0545415391248228,0.044724062082354694,-0.14726215563702155
2025-02-06 13:15:10.956686,10.06,-1.22,-1.18,0.10581058590215622,0.1189005552921137,-0.055632369907319255
2025-02-06 13:15:11.067536,9.5,-0.71,-3.09,0.33161255787892263,-0.04799655442984406,0.5366887449882564
2025-02-06 13:15:11.178123,9.98,-0.67,-1.53,-0.07744898555724837,0.006544984694978736,0.04145156973486533
2025-02-06 13:15:11.288070,7.84,-0.14,-1.35,0.0545415391248228,-0.1559888018969932,-0.10581058590215622
2025-02-06 13:15:11.396887,8.33,0.01,-1.49,-0.04799655442984406,-0.22580197197676638,-0.2650718801466388
2025-02-06 13:15:11.506573,11.15,-0.9400000000000001,0.43,0.03381575425739013,-0.10362892433716332,-0.32179508083645453
2025-02-06 13:15:11.617220,10.83,-2.1,-1.69,0.09599310885968812,0.12980886311707826,0.10799224746714914
2025-02-06 13:15:11.728098,9.09,-0.73,-1.6500000000000001,-0.1636246173744684,-0.07308566242726255,-0.05126904677733343
2025-02-06 13:15:11.839079,8.620000000000001,0.11,-1.58,-0.05781403147231216,-0.017453292519943295,-0.2585268954516601
2025-02-06 13:15:11.947925,10.47,-0.65,-0.74,0.09490227807719166,0.3937899124812206,-0.026179938779914945
2025-02-06 13:15:12.056921,7.82,0.64,-0.92,0.09053895494720585,-0.14180800172453928,-0.6784967467127956
2025-02-06 13:15:12.167215,9.36,-0.84,-1.31,-0.21271200258680892,-0.5988660995905544,-0.1090830782496456
2025-02-06 13:15:12.277671,7.8100000000000005,0.37,-1.25,0.1439896632895322,-0.7494007475750653,-0.4068798818711781
2025-02-06 13:15:12.388337,8.89,-0.4,-1.1500000000000001,0.038179077387375956,-0.2083486794568231,-0.48323803664593
2025-02-06 13:15:12.497367,9.92,-0.11,-1.11,-0.009817477042468103,-0.017453292519943295,-0.007635815477475192
2025-02-06 13:15:12.606205,11.24,-0.71,-0.49,-0.34033920413889424,0.28579766501407144,0.7941248096574199
2025-02-06 13:15:12.715267,9.370000000000001,-0.93,-0.8200000000000001,-0.2716168648416175,-0.28579766501407144,-0.04036073895236887
2025-02-06 13:15:12.825646,9.89,-0.76,-0.03,-0.08835729338221293,0.3108867730114899,0.22362031041177347
2025-02-06 13:15:12.936348,9.11,0.0,-0.86,-0.00545415391248228,0.23125612588924865,-0.18980455615438332
2025-02-06 13:15:13.047082,10.38,-0.89,0.27,0.16798794050445423,0.3174317577064687,0.016362461737446838
2025-02-06 13:15:13.156084,11.15,-2.0,-0.38,-0.02945243112740431,-0.11235557059713497,0.13526301702956053
2025-02-06 13:15:13.265066,9.59,-1.5,0.38,0.12871803233458182,0.3665191429188092,0.421060682043632
2025-02-06 13:15:13.375332,8.26,0.03,-1.21,0.2879793265790644,-0.03381575425739013,0.050178215994836975
2025-02-06 13:15:13.486160,9.91,-1.57,-1.82,-0.037088246604879506,0.07308566242726255,-0.06217735460229799
2025-02-06 13:15:13.597109,7.92,-0.6,-3.36,-0.16253378659197193,-0.07090400086226964,0.20616701789183017
2025-02-06 13:15:13.705878,10.33,-1.9000000000000001,-1.86,-0.605411084285533,-0.2912518189265537,0.31306843457648287
2025-02-06 13:15:13.814812,9.56,-0.99,0.1,-0.4439681284760576,-0.007635815477475192,-0.039269908169872414
2025-02-06 13:15:13.923914,9.06,-0.43,-0.67,-0.23452861823673804,0.08072147790473774,-0.27052603405912107
2025-02-06 13:15:14.034464,10.9,-1.68,-0.97,0.09490227807719166,0.1559888018969932,-0.11999138607461016
2025-02-06 13:15:14.144996,9.59,-0.64,0.0,0.25089107997418486,0.11562806294462433,0.7570365630525404
2025-02-06 13:15:14.255737,11.06,-2.5300000000000002,0.9,-0.14289883250703572,0.16144295580947549,0.5497787143782138
2025-02-06 13:15:14.365173,8.89,-0.25,-1.18,0.2378011105842274,-0.09926560120717749,-0.20616701789183017
2025-02-06 13:15:14.475820,8.88,-0.79,-0.87,0.011999138607461015,0.07308566242726255,-0.32070425005395803
2025-02-06 13:15:14.586492,9.99,-0.32,-0.19,0.13744467859455345,-0.1407171709420428,-0.36760997370130566
2025-02-06 13:15:14.697209,10.68,-1.43,-0.86,0.16580627893946132,-0.37742745074377376,-0.25634523388666713
2025-02-06 13:15:14.808065,8.950000000000001,-0.2,-1.4000000000000001,-0.19853120241435498,-0.05999569303730508,0.044724062082354694
2025-02-06 13:15:14.916862,8.93,-0.5700000000000001,-1.44,-0.15489797111449674,0.10035643198967395,0.2716168648416175
2025-02-06 13:15:15.025779,10.17,-1.19,-0.24,0.030543261909900768,0.22143864884678055,-0.028361600344907856
2025-02-06 13:15:15.136672,8.26,-0.12,-0.02,0.6141377305455047,0.16035212502697901,-0.3839724354387525
2025-02-06 13:15:15.247366,10.08,-2.15,-0.68,-0.026179938779914945,-0.3490658503988659,-0.2519819107566813
2025-02-06 13:15:15.358990,8.21,-0.78,-1.06,0.32834006553143325,-0.40251655874119224,-0.18653206380689397
2025-02-06 13:15:15.467862,8.8,-0.3,-1.41,0.09490227807719166,-0.17016960206944712,-0.3327033886614191
2025-02-06 13:15:15.576752,11.49,-1.62,-0.28,-0.09272061651219876,-0.025089107997418487,-0.2792526803190927
2025-02-06 13:15:15.687090,11.28,-1.26,0.65,-0.44178646691106466,0.32179508083645453,0.8050331174823845
2025-02-06 13:15:15.797910,11.38,-2.88,0.09,-0.23125612588924865,-0.08835729338221293,0.3294308963139297
2025-02-06 13:15:15.908475,8.61,-0.25,-0.77,-0.0719948316447661,0.003272492347489368,-0.22362031041177347
2025-02-06 13:15:16.018350,8.17,-0.21,-0.24,0.0818123086872342,0.1559888018969932,-0.14180800172453928
2025-02-06 13:15:16.127237,9.77,0.56,0.05,0.25743606466916363,0.23234695667174513,0.0719948316447661
2025-02-06 13:15:16.236326,12.33,-3.12,0.33,0.3021601267515183,-0.27598018797160334,-0.41233403578366035
2025-02-06 13:15:16.347154,9.39,-1.58,-0.02,0.20180369476184434,-0.003272492347489368,0.028361600344907856
2025-02-06 13:15:16.457708,9.38,-1.04,-0.96,0.18216874067690814,-0.06435901616729091,-0.2181661564992912
2025-02-06 13:15:16.568368,-317.73,-1.56,-1.1500000000000001,-0.014180800172453928,0.3043417883165112,0.007635815477475192
2025-02-06 13:15:16.677867,9.44,-1.21,-3.5700000000000003,-0.31525009614147576,0.09599310885968812,0.2781618495365963
2025-02-06 13:15:16.784772,10.23,-1.43,-1.12,-0.13526301702956053,0.011999138607461015,0.33488505022641196
2025-02-06 13:15:16.894265,8.11,-0.12,-1.04,-0.2694352032766246,-0.004363323129985824,0.08726646259971647
2025-02-06 13:15:17.004714,7.82,-0.13,-0.39,-0.2454369260617026,0.019634954084936207,-0.18653206380689397
2025-02-06 13:15:17.115237,10.34,-0.64,-1.26,-0.11344640137963143,0.07090400086226964,0.2617993877991494
2025-02-06 13:15:17.227677,-315.47,-2.77,-0.96,0.06326818538479445,0.14835298641951802,1.50207398749762
2025-02-06 13:15:17.337443,9.77,-2.37,0.28,-0.08290313946973066,-0.018544123302439753,0.3043417883165112
2025-02-06 13:15:17.447411,8.46,-0.88,-0.26,0.29670597283903605,-0.18871372537188688,-0.09053895494720585
2025-02-06 13:15:17.558357,8.32,-0.51,-0.8300000000000001,0.11235557059713497,0.009817477042468103,-0.17889624832941878
2025-02-06 13:15:17.669201,10.34,-1.11,-0.8,0.15926129424448257,-0.007635815477475192,-0.2748893571891069
2025-02-06 13:15:17.779301,10.44,-2.37,-1.45,0.022907446432425576,-0.23561944901923448,-0.19525871006686563
2025-02-06 13:15:17.888344,8.9,-0.56,-1.97,-0.19198621771937624,-0.21489366415180183,-0.1636246173744684
2025-02-06 13:15:17.997378,9.19,-0.86,-0.6900000000000001,-0.1712604328519436,0.12762720155208535,-0.1636246173744684
2025-02-06 13:15:18.108098,9.85,-0.64,-0.79,0.10362892433716332,0.20289452554434081,-0.21380283336930536
2025-02-06 13:15:18.218789,7.88,-0.61,-1.84,0.14835298641951802,-0.8933904108645975,-0.9555677654668955
2025-02-06 13:15:18.329691,8.98,-0.47000000000000003,-2.1,-0.04036073895236887,-0.3108867730114899,0.0818123086872342
2025-02-06 13:15:18.438736,9.69,-0.85,-0.32,0.04363323129985824,0.05126904677733343,0.27598018797160334
2025-02-06 13:15:18.547606,8.75,-0.16,-0.86,0.17780541754692233,-0.07308566242726255,-0.29670597283903605
2025-02-06 13:15:18.658489,11.11,-1.68,-0.79,0.03599741582238305,0.1308996938995747,-0.09708393964218458
2025-02-06 13:15:18.768968,12.27,-2.15,0.1,35.32546406036523,0.2203478180642841,0.6588617926278594
2025-02-06 13:15:18.879537,9.950000000000001,-1.82,-0.86,-0.19853120241435498,-0.032724923474893676,0.35124751196385884
2025-02-06 13:15:18.988636,9.09,-0.58,-0.74,-0.06981317007977318,-0.02181661564992912,-0.09817477042468103
2025-02-06 13:15:19.097760,8.870000000000001,-0.41000000000000003,-0.93,-0.015271630954950384,0.06654067773228381,-0.18544123302439752
2025-02-06 13:15:19.206808,10.76,-1.22,-1.37,0.17016960206944712,0.23561944901923448,-0.18980455615438332
2025-02-06 13:15:19.318486,12.5,-2.42,0.61,0.2825251726665821,0.06981317007977318,-0.018544123302439753
2025-02-06 13:15:19.428771,9.96,-2.0100000000000002,0.87,0.18980455615438332,0.1538071403320003,0.27379852640661045
2025-02-06 13:15:19.539255,8.83,-0.27,-1.26,0.3534291735288517,-0.08944812416470939,0.04363323129985824
2025-02-06 13:15:19.648221,9.26,-1.01,-1.61,0.210530341021816,0.06981317007977318,-0.18544123302439752
2025-02-06 13:15:19.757326,9.1,-0.34,-2.92,0.04690572364734761,-0.003272492347489368,-0.17998707911191522
2025-02-06 13:15:19.868348,9.38,-1.21,-3.0,-0.29670597283903605,-0.3119776037939864,0.013089969389957472
2025-02-06 13:15:19.979040,9.18,-0.6,-1.17,-0.5105088062083414,0.044724062082354694,0.34579335805137656
2025-02-06 13:15:20.089925,8.09,0.28,-0.23,-0.16798794050445423,0.12435470920459599,-0.022907446432425576
2025-02-06 13:15:20.198859,10.65,-0.8300000000000001,-1.04,0.18871372537188688,0.2792526803190927,-0.21380283336930536
2025-02-06 13:15:20.307884,9.34,-1.06,-2.69,0.19198621771937624,-0.10362892433716332,0.35124751196385884
2025-02-06 13:15:20.418263,10.03,-1.73,-1.21,-0.08290313946973066,-0.05235987755982989,0.4603305902135044
2025-02-06 13:15:20.528803,8.65,-0.8200000000000001,0.42,0.21707532571679475,-0.0916297857297023,0.16689710972195776
2025-02-06 13:15:20.639494,8.45,-0.06,-2.07,0.18435040224190105,-0.15162547876700738,-0.3959715740462135
2025-02-06 13:15:20.749107,11.05,-2.0100000000000002,-0.92,-0.08399397025222712,0.210530341021816,-0.06217735460229799
2025-02-06 13:15:20.858106,12.870000000000001,-3.16,0.7000000000000001,-0.2476185876266955,0.3196134192714616,0.6784967467127956
2025-02-06 13:15:20.967363,9.85,-1.72,-1.08,-0.0818123086872342,0.05235987755982989,0.11671889372712078
2025-02-06 13:15:21.078023,8.47,-0.02,-1.52,-0.21707532571679475,0.061086523819801536,-0.2923426497090502
2025-02-06 13:15:21.188728,9.34,-0.81,-0.08,0.013089969389957472,0.09053895494720585,-0.13526301702956053
2025-02-06 13:15:21.299547,11.71,-1.46,0.39,0.41233403578366035,0.18544123302439752,-0.272707695624114
2025-02-06 13:15:21.408651,9.38,-1.32,-1.16,0.23889194136672387,-0.33597588100890846,-0.6730425928003133
2025-02-06 13:15:21.517688,8.57,-0.52,-0.8300000000000001,0.18435040224190105,-0.21707532571679475,0.08399397025222712
2025-02-06 13:15:21.628831,9.33,-0.48,-1.22,0.08290313946973066,0.07744898555724837,0.026179938779914945
2025-02-06 13:15:21.739809,9.61,-1.1400000000000001,-1.98,-0.04363323129985824,0.21598449493429828,-0.032724923474893676
2025-02-06 13:15:21.850820,8.72,-0.67,-2.94,-0.28034351110158917,-0.031634092692397225,0.17453292519943295
2025-02-06 13:15:21.959649,9.8,-1.21,-1.58,-0.3621558197888234,-0.12326387842209953,0.1832595714594046
2025-02-06 13:15:22.068203,9.33,-0.8,-0.39,-0.09381144729469522,0.002181661564992912,0.11780972450961724
2025-02-06 13:15:22.177527,9.09,-0.13,-1.25,-0.055632369907319255,-0.025089107997418487,-0.09599310885968812
2025-02-06 13:15:22.288350,10.17,-0.68,-1.67,0.12326387842209953,0.08617563181722002,-0.25089107997418486
2025-02-06 13:15:22.398870,10.450000000000001,-1.45,-0.86,0.026179938779914945,0.1712604328519436,0.7744898555724837
2025-02-06 13:15:22.509310,10.39,-2.02,0.41000000000000003,-0.210530341021816,0.1308996938995747,0.49632800603588745
2025-02-06 13:15:22.618341,8.36,-0.12,-0.65,0.21925698728178766,-0.11453723216212788,0.0545415391248228
2025-02-06 13:15:22.727276,9.55,-0.9,-0.31,0.16580627893946132,0.05672320068981571,-0.09599310885968812
2025-02-06 13:15:22.838291,10.15,-0.52,-0.89,-0.044724062082354694,0.13962634015954636,-0.21707532571679475
2025-02-06 13:15:22.949202,12.26,-2.89,1.1300000000000001,0.13308135546456762,0.07308566242726255,-0.06435901616729091
2025-02-06 13:15:23.060136,9.67,-1.48,-1.94,-0.21598449493429828,0.10253809355466686,0.03490658503988659
2025-02-06 13:15:23.169793,8.75,-0.61,0.14,-0.1265363707695889,0.11562806294462433,-0.0719948316447661
2025-02-06 13:15:23.279028,9.3,-0.3,-0.31,0.04145156973486533,0.11344640137963143,-0.10362892433716332
2025-02-06 13:15:23.390142,9.61,-0.97,-1.35,0.06326818538479445,0.23125612588924865,-0.05781403147231216
2025-02-06 13:15:23.500762,12.99,-2.47,1.35,-0.031634092692397225,0.26725354171163174,0.5355979142057599
2025-02-06 13:15:23.611836,10.57,-2.5500000000000003,0.39,-0.18216874067690814,0.10144726277217041,0.28907015736156083
2025-02-06 13:15:23.720724,9.96,-1.8800000000000001,-0.48,0.1189005552921137,-0.015271630954950384,0.11017390903214205
2025-02-06 13:15:23.829696,9.08,-1.18,-0.4,0.013089969389957472,-0.01090830782496456,-0.28034351110158917
2025-02-06 13:15:23.939806,9.47,-0.55,-1.6300000000000001,0.26070855701665296,0.15162547876700738,-0.08835729338221293
2025-02-06 13:15:24.050590,10.040000000000001,-0.79,-1.25,0.11562806294462433,0.22362031041177347,0.29888763440402893
2025-02-06 13:15:24.161660,8.540000000000001,-0.03,-2.16,0.32179508083645453,-0.11235557059713497,0.18980455615438332
2025-02-06 13:15:24.271468,9.14,-1.19,0.17,0.2279836335417593,-0.10144726277217041,-0.09381144729469522
2025-02-06 13:15:24.380396,8.5,-1.29,1.25,0.7995789635699022,-0.21380283336930536,-0.3294308963139297
2025-02-06 13:15:24.489382,8.700000000000001,0.17,-2.07,1.7889624832941877,-0.40578905108868163,-0.5050546522958591
2025-02-06 13:15:24.599957,9.59,-1.6500000000000001,-2.18,2.284199658547579,-0.2552544031041707,0.026179938779914945
2025-02-06 13:15:24.710474,9.8,-2.13,-3.0100000000000002,2.7761643414534802,-0.2781618495365963,-0.10471975511965978
2025-02-06 13:15:24.821328,8.15,-2.27,-2.27,2.84706834231575,-0.3523383427463553,-0.5563236990731926
2025-02-06 13:15:24.930397,10.36,-3.2800000000000002,-1.31,2.811070926493367,0.136353847812057,0.18653206380689397
2025-02-06 13:15:25.039285,10.26,-2.65,-0.66,2.508910799741849,0.20616701789183017,-0.015271630954950384
2025-02-06 13:15:25.149733,9.74,-3.16,-1.1,2.0245819323134224,0.037088246604879506,-0.22471114119426994
2025-02-06 13:15:25.260217,10.55,-2.89,-1.85,1.6002487579223008,-0.19416787928436915,-0.20398535632683726
2025-02-06 13:15:25.370892,9.040000000000001,-1.84,-1.54,1.4693490640227262,-0.11671889372712078,-0.3174317577064687
2025-02-06 13:15:25.480491,9.96,-2.32,-0.24,1.0679233360640303,-0.07090400086226964,-0.004363323129985824
2025-02-06 13:15:25.589542,11.49,-2.77,-1.26,1.0951941056264418,-0.1407171709420428,-0.28907015736156083
2025-02-06 13:15:25.698591,9.88,-2.39,-0.48,1.1486448139687682,0.12326387842209953,-0.39924406639370286
2025-02-06 13:15:25.809076,8.45,-1.3800000000000001,-1.16,1.1999138607461015,0.002181661564992912,-0.31634092692397225
2025-02-06 13:15:25.919567,9.18,-1.67,-1.3900000000000001,1.016654289286697,-0.13308135546456762,-0.3763366199612773
2025-02-06 13:15:26.030404,9.870000000000001,-0.28,-1.34,0.6065019150680295,-0.04254240051736178,0.24107360293171676
2025-02-06 13:15:26.139479,9.88,-0.67,-0.87,0.4232423436086249,0.014180800172453928,-0.05672320068981571
2025-02-06 13:15:26.248519,9.71,-0.12,-0.65,0.2977968036215325,0.08508480103472356,0.02399827721492203
2025-02-06 13:15:26.359039,9.83,-0.33,-0.84,0.21925698728178766,0.10035643198967395,-0.014180800172453928
2025-02-06 13:15:26.469739,9.93,-0.27,0.08,0.21489366415180183,0.15817046346198613,0.06544984694978735
2025-02-06 13:15:26.580628,9.18,0.11,-1.1300000000000001,0.29561514205653955,-0.08072147790473774,-0.07308566242726255
2025-02-06 13:15:26.689430,9.450000000000001,-0.03,-0.98,0.20616701789183017,-0.02181661564992912,0.0272707695624114
2025-02-06 13:15:26.797057,9.94,0.11,-0.63,0.20289452554434081,-0.08508480103472356,0.10253809355466686
2025-02-06 13:15:26.905648,9.63,0.25,0.35000000000000003,0.07853981633974483,-0.2007128639793479,0.1734420944169365
2025-02-06 13:15:27.017068,10.05,0.33,-0.65,0.1308996938995747,-0.04036073895236887,0.06763150851478027
2025-02-06 13:15:27.127447,9.74,0.03,-0.32,0.10799224746714914,-0.06981317007977318,-0.05781403147231216
2025-02-06 13:15:27.238136,9.53,0.91,-1.03,0.1461713248545251,-0.13199052468207118,-0.04799655442984406
2025-02-06 13:15:27.347118,8.65,1.0,-1.03,0.02945243112740431,0.008726646259971648,-0.001090830782496456
2025-02-06 13:15:27.456164,10.290000000000001,0.44,-1.41,-0.007635815477475192,-0.08617563181722002,0.08617563181722002
2025-02-06 13:15:27.565882,12.26,-0.5700000000000001,-2.9,0.27052603405912107,0.3239767424014474,0.07853981633974483
2025-02-06 13:15:27.673780,9.93,-1.98,-0.9,-0.04908738521234052,0.27598018797160334,0.36324665057131983
2025-02-06 13:15:27.784573,8.66,0.06,-1.76,-0.12326387842209953,-0.04581489286485115,-0.08072147790473774
2025-02-06 13:15:27.894644,9.200000000000001,-0.22,-0.64,-0.22580197197676638,0.17671458676442586,-0.20507618710933373
2025-02-06 13:15:28.003146,11.25,-0.81,-1.34,0.14180800172453928,0.06872233929727672,-0.19962203319685143
2025-02-06 13:15:28.112177,8.65,-1.35,0.22,0.3196134192714616,-0.7690357016600015,-0.3141592653589793
2025-02-06 13:15:28.222956,9.34,-0.61,-1.05,0.09599310885968812,-0.37960911230876665,0.11780972450961724
2025-02-06 13:15:28.333815,8.45,-0.24,0.15,-0.09599310885968812,-0.15817046346198613,-0.11453723216212788
2025-02-06 13:15:28.444702,8.53,0.17,-0.46,-0.07417649320975901,-0.23889194136672387,-0.43196898986859655
2025-02-06 13:15:28.553802,10.700000000000001,-1.71,0.23,-0.14835298641951802,-0.09272061651219876,-0.21271200258680892
2025-02-06 13:15:28.662735,12.56,-1.83,-0.89,-0.35124751196385884,0.15489797111449674,0.5868669609830933
2025-02-06 13:15:28.773707,10.26,-1.24,-0.55,-0.3174317577064687,-0.028361600344907856,0.09490227807719166
2025-02-06 13:15:28.884209,9.13,-0.54,-0.5,-0.25743606466916363,0.27598018797160334,-0.01090830782496456
2025-02-06 13:15:28.996216,9.24,-0.2,0.11,-0.00545415391248228,0.04145156973486533,-0.22580197197676638
2025-02-06 13:15:29.105498,11.39,-0.62,1.62,0.26616271092913524,0.2519819107566813,-0.14726215563702155
2025-02-06 13:15:29.214759,9.76,-0.78,-1.16,0.6010477611555473,-0.5214171140333059,-0.1505346479845109
2025-02-06 13:15:29.325244,9.43,-0.96,-0.36,0.34143003492139073,0.5159629601208237,0.33815754257390135
2025-02-06 13:15:29.436241,8.33,-0.12,-1.55,0.22362031041177347,0.2683443724941282,-0.0916297857297023
2025-02-06 13:15:29.547086,9.34,-0.56,-2.17,0.05781403147231216,0.16580627893946132,-0.1439896632895322
2025-02-06 13:15:29.656954,8.22,-0.7000000000000001,-4.23,-0.3425208657038872,-0.37960911230876665,0.09272061651219876
2025-02-06 13:15:29.766205,9.47,-0.92,-3.88,-0.4286964975211072,-0.14726215563702155,0.4919646829059016
2025-02-06 13:15:29.875290,9.97,-0.77,-1.69,-0.3687008044838021,0.26070855701665296,0.3490658503988659
2025-02-06 13:15:29.984958,10.11,-0.21,-0.18,-0.12544553998709243,0.2007128639793479,-0.20616701789183017
2025-02-06 13:15:30.095374,9.49,-0.8,-0.8300000000000001,0.35124751196385884,0.1559888018969932,-0.4657847441259867
2025-02-06 13:15:30.206255,11.98,-1.21,-0.53,0.20725784867432664,0.11017390903214205,0.7035858547102141
2025-02-06 13:15:30.314535,10.200000000000001,-1.37,0.5,-0.13308135546456762,-0.0719948316447661,0.421060682043632
2025-02-06 13:15:30.423159,8.26,0.02,-1.3,0.2301652951067522,-0.21162117180431245,-0.14944381720201447
2025-02-06 13:15:30.533858,8.26,0.2,-1.24,-0.039269908169872414,-0.07744898555724837,-0.39051742013373125
2025-02-06 13:15:30.644440,10.450000000000001,0.76,-0.01,-0.05890486225480862,0.007635815477475192,-0.07635815477475191
2025-02-06 13:15:30.755380,11.24,-2.12,-0.5,-0.10690141668465268,0.15489797111449674,0.09926560120717749
2025-02-06 13:15:30.866157,9.75,-0.44,-0.76,-0.3370667117914049,0.008726646259971648,0.06654067773228381
2025-02-06 13:15:30.975229,8.83,-0.51,0.91,-0.38942658935123475,0.14944381720201447,-0.14289883250703572
2025-02-06 13:15:31.085272,9.08,0.75,0.27,-0.08508480103472356,0.3370667117914049,0.16907877128695067
2025-02-06 13:15:31.196352,8.290000000000001,0.12,-0.21,-0.07853981633974483,-0.3021601267515183,-0.04363323129985824
2025-02-06 13:15:31.307021,10.0,-1.93,-0.36,-0.05672320068981571,-0.22689280275926285,0.7090400086226963
2025-02-06 13:15:31.417044,8.73,-0.22,0.44,0.25416357232167425,-0.3108867730114899,0.018544123302439753
2025-02-06 13:15:31.525930,8.51,0.31,-0.79,0.15271630954950383,-0.0916297857297023,-0.4363323129985824
2025-02-06 13:15:31.634994,10.9,-1.55,-0.8200000000000001,0.002181661564992912,0.12544553998709243,-0.23234695667174513
2025-02-06 13:15:31.745674,12.14,-1.6500000000000001,0.17,-0.12435470920459599,0.27052603405912107,0.36760997370130566
2025-02-06 13:15:31.856366,9.790000000000001,-1.34,0.36,-0.2399827721492203,0.05345070834232634,0.22143864884678055
2025-02-06 13:15:31.967082,8.38,-0.02,-0.25,-0.16253378659197193,-0.030543261909900768,-0.12326387842209953
2025-02-06 13:15:32.076090,8.77,0.23,-0.56,0.12435470920459599,-0.07963064712224129,-0.22362031041177347
2025-02-06 13:15:32.184976,10.85,0.19,1.1400000000000001,0.2748893571891069,0.21271200258680892,-0.050178215994836975
2025-02-06 13:15:32.295610,11.07,-1.58,0.24,-0.04363323129985824,-0.19634954084936207,-0.11562806294462433
2025-02-06 13:15:32.406389,9.18,-0.8200000000000001,1.03,0.1712604328519436,-0.12762720155208535,-0.03490658503988659
2025-02-06 13:15:32.516812,8.31,0.14,-0.99,0.07526732399225546,-0.2879793265790644,-0.26725354171163174
2025-02-06 13:15:32.626129,9.84,-0.78,-0.45,-0.050178215994836975,-0.039269908169872414,-0.06435901616729091
2025-02-06 13:15:32.735034,9.18,0.54,-2.63,-0.44724062082354693,0.08508480103472356,0.4079707126536745
2025-02-06 13:15:32.844269,10.700000000000001,-1.6600000000000001,-0.88,-0.45705809786601503,0.10362892433716332,0.5235987755982988
2025-02-06 13:15:32.954763,8.47,0.43,-0.42,-0.24870941840919197,-0.06872233929727672,0.09817477042468103
2025-02-06 13:15:33.065410,8.72,0.44,-0.26,-0.08835729338221293,0.030543261909900768,-0.21925698728178766
2025-02-06 13:15:33.176143,10.540000000000001,-0.7000000000000001,-0.85,0.22252947962927702,0.08617563181722002,-0.1189005552921137
2025-02-06 13:15:33.285087,13.0,-1.83,0.72,0.23125612588924865,0.050178215994836975,0.6163193921104976
2025-02-06 13:15:33.394326,10.0,-2.21,0.6900000000000001,-0.07635815477475191,0.07853981633974483,0.4788747135159442
2025-02-06 13:15:33.504875,8.25,0.55,-0.54,0.2454369260617026,-0.33161255787892263,-0.18544123302439752
2025-02-06 13:15:33.615579,9.4,-0.2,-1.07,0.09381144729469522,0.02181661564992912,-0.29888763440402893
2025-02-06 13:15:33.726433,10.72,-0.19,0.31,0.2476185876266955,0.10581058590215622,-0.22362031041177347
2025-02-06 13:15:33.835333,9.35,-0.16,-3.7800000000000002,0.08617563181722002,-0.2519819107566813,-0.2683443724941282
2025-02-06 13:15:33.944370,8.76,0.02,-1.45,-0.10362892433716332,-0.06763150851478027,-0.11126473981463851
2025-02-06 13:15:34.054853,8.23,0.16,-1.92,-0.09708393964218458,0.08508480103472356,-0.23889194136672387
2025-02-06 13:15:34.165596,8.67,0.17,-0.62,0.07635815477475191,0.09490227807719166,0.06544984694978735
2025-02-06 13:15:34.276403,7.6000000000000005,0.61,-0.8,0.08399397025222712,-0.26398104936414235,-0.025089107997418487
2025-02-06 13:15:34.386188,9.86,-1.11,-0.33,-0.2781618495365963,-0.34797501961636945,-0.04036073895236887
2025-02-06 13:15:34.495329,8.72,-0.37,-0.13,0.06654067773228381,-0.5737769915931359,-0.35124751196385884
2025-02-06 13:15:34.604246,9.17,-0.19,-1.87,0.04363323129985824,0.02399827721492203,-0.2650718801466388
2025-02-06 13:15:34.715649,10.71,-1.3,-0.51,0.030543261909900768,0.24980024919168842,-0.12544553998709243
2025-02-06 13:15:34.826403,12.84,-2.5100000000000002,0.2,-0.2628902185816459,0.33161255787892263,0.4930555136883981
2025-02-06 13:15:34.937280,9.78,-1.23,-0.84,-0.17016960206944712,0.35561083509384467,0.459239759431008
2025-02-06 13:15:35.046260,8.44,-0.06,-0.54,-0.2378011105842274,0.21598449493429828,0.07744898555724837
2025-02-06 13:15:35.155454,9.56,-0.16,-0.58,0.0,0.2650718801466388,0.037088246604879506
2025-02-06 13:15:35.265788,10.61,-0.06,1.62,0.33488505022641196,0.5083271446433485,-0.032724923474893676
2025-02-06 13:15:35.376513,8.74,-1.24,-0.22,-0.2923426497090502,-0.6872233929727672,-0.1636246173744684
2025-02-06 13:15:35.487613,8.9,-0.63,-0.29,0.06981317007977318,-0.607592745850526,-0.13199052468207118
2025-02-06 13:15:35.596557,9.17,-0.6,-0.89,0.06544984694978735,0.00545415391248228,-0.2814343418840856
2025-02-06 13:15:35.705503,10.450000000000001,-1.77,-0.79,0.12544553998709243,0.19962203319685143,-0.1930770485018727
2025-02-06 13:15:35.815309,11.49,-1.99,-1.03,-0.44178646691106466,0.272707695624114,0.779944009484966
2025-02-06 13:15:35.926186,9.47,-1.4000000000000001,-0.53,-0.07853981633974483,0.0272707695624114,-0.08944812416470939
2025-02-06 13:15:36.037364,8.69,-0.27,-0.09,-0.09817477042468103,-0.15271630954950383,-0.33052172709642613
2025-02-06 13:15:36.147225,8.89,-0.11,-0.27,0.017453292519943295,-0.02945243112740431,-0.3741549583962844
2025-02-06 13:15:36.256088,11.13,-1.52,0.39,0.32288591161895097,0.12108221685710661,-0.2530727415391778
2025-02-06 13:15:36.365063,12.99,-1.11,0.25,0.6032294227205401,0.21380283336930536,-0.04799655442984406
2025-02-06 13:15:36.475750,10.1,-2.16,1.37,0.1439896632895322,0.38942658935123475,0.32615840396644036
2025-02-06 13:15:36.586319,8.700000000000001,-0.55,-1.01,0.4112432050011639,-0.2454369260617026,0.026179938779914945
2025-02-06 13:15:36.697192,8.74,-0.39,-1.47,0.04908738521234052,0.016362461737446838,-0.10690141668465268
2025-02-06 13:15:36.806222,8.51,-0.13,-2.29,-0.05235987755982989,-0.030543261909900768,-0.04581489286485115
2025-02-06 13:15:36.915171,9.48,-0.98,-2.84,-0.32288591161895097,-0.49960049838337683,0.08072147790473774
2025-02-06 13:15:37.026017,9.34,-0.14,-1.1300000000000001,-0.48105637508093707,-0.019634954084936207,0.015271630954950384
2025-02-06 13:15:37.136349,9.32,-0.29,0.0,-0.2945243112740431,0.1636246173744684,-0.09381144729469522
2025-02-06 13:15:37.245973,10.96,-0.81,0.04,0.07090400086226964,0.23234695667174513,-0.2945243112740431
2025-02-06 13:15:37.356031,9.22,0.08,-0.87,0.3294308963139297,-0.22907446432425577,0.11017390903214205
2025-02-06 13:15:37.465026,9.52,-1.37,-0.85,-0.1461713248545251,0.11017390903214205,0.47669305195095124
2025-02-06 13:15:37.574568,7.83,0.13,0.76,0.45487643630102215,-0.38069994309126315,-0.21925698728178766
2025-02-06 13:15:37.685500,9.39,-0.23,-0.87,0.09272061651219876,0.09599310885968812,-0.27598018797160334
2025-02-06 13:15:37.796011,10.47,-1.07,0.38,0.07635815477475191,0.11344640137963143,-0.23234695667174513
2025-02-06 13:15:37.906533,11.42,-1.5,0.05,-0.02399827721492203,-0.136353847812057,0.18871372537188688
2025-02-06 13:15:38.015531,9.93,-0.58,-2.3000000000000003,0.020725784867432664,-0.16253378659197193,-0.24652775684419906
2025-02-06 13:15:38.124731,8.11,-0.03,-1.99,-0.16035212502697901,0.01090830782496456,-0.2814343418840856
2025-02-06 13:15:38.235257,9.18,-0.07,-1.16,-0.031634092692397225,-0.022907446432425576,-0.055632369907319255
2025-02-06 13:15:38.346156,8.4,-0.08,-0.23,-35.49672449321717,-0.06763150851478027,-0.05672320068981571
2025-02-06 13:15:38.457384,10.13,-0.79,0.22,-0.23125612588924865,-0.3097959422289935,-0.03490658503988659
2025-02-06 13:15:38.566055,8.75,-0.55,0.48,0.11017390903214205,0.0,-0.019634954084936207
2025-02-06 13:15:38.675940,8.08,0.15,-0.19,0.11780972450961724,-0.0916297857297023,-0.17016960206944712
2025-02-06 13:15:38.786966,10.790000000000001,-1.23,-0.33,0.02945243112740431,0.015271630954950384,-0.10253809355466686
2025-02-06 13:15:38.897523,12.56,-1.05,0.22,-0.22689280275926285,0.23671027980173096,0.6403176693254197
2025-02-06 13:15:39.008289,10.790000000000001,-2.33,0.02,-0.3076142806640006,0.3108867730114899,0.6228643768054763
2025-02-06 13:15:39.117485,8.74,-0.06,-0.68,-0.05126904677733343,0.02945243112740431,0.07963064712224129
2025-02-06 13:15:39.226532,8.32,0.14,-0.45,-0.09708393964218458,0.00545415391248228,-0.3174317577064687
2025-02-06 13:15:39.335659,10.57,-1.25,-0.27,0.1090830782496456,0.25089107997418486,-0.10471975511965978
2025-02-06 13:15:39.446302,13.07,-2.49,1.92,0.4526947747360292,-0.11126473981463851,-0.06981317007977318
2025-02-06 13:15:39.556872,9.790000000000001,-1.22,0.9500000000000001,0.11780972450961724,0.09272061651219876,0.11235557059713497
2025-02-06 13:15:39.667884,8.97,-0.36,-0.92,0.23889194136672387,-0.1908953869368798,-0.11453723216212788
2025-02-06 13:15:39.776568,9.200000000000001,-1.12,-0.8300000000000001,-0.01090830782496456,0.11344640137963143,-0.1559888018969932
2025-02-06 13:15:39.885193,8.53,-0.05,-2.29,0.017453292519943295,-0.09053895494720585,-0.04799655442984406
2025-02-06 13:15:39.997156,9.97,-1.37,-1.69,-0.6370451769779303,-0.08508480103472356,0.42978732830360367
2025-02-06 13:15:40.107959,9.120000000000001,-0.4,-0.34,-0.4494222823885399,-0.007635815477475192,0.2279836335417593
2025-02-06 13:15:40.218787,9.25,0.02,-0.56,-0.18762289458939044,0.07308566242726255,-0.1712604328519436
2025-02-06 13:15:40.327758,10.65,-1.3,-0.11,0.12980886311707826,0.22143864884678055,-0.28579766501407144
2025-02-06 13:15:40.436646,11.66,-1.23,-0.63,0.4657847441259867,0.2399827721492203,0.6185010536754906
2025-02-06 13:15:40.546800,9.24,-1.62,0.39,-0.17998707911191522,0.026179938779914945,0.136353847812057
2025-02-06 13:15:40.658028,7.65,0.25,0.15,0.28688849579656794,-0.4166973589136462,-0.08399397025222712
2025-02-06 13:15:40.768514,8.370000000000001,0.29,-1.29,0.210530341021816,-0.19634954084936207,-0.3817907738737596
2025-02-06 13:15:40.878212,10.11,-0.48,-0.33,0.0719948316447661,0.16253378659197193,-0.1930770485018727
2025-02-06 13:15:40.987315,12.66,-2.71,1.17,0.24980024919168842,0.45160394395353276,0.20507618710933373
2025-02-06 13:15:41.096675,10.290000000000001,-1.16,-1.03,-0.00545415391248228,-0.13853550937704992,-0.12762720155208535
2025-02-06 13:15:41.207523,7.46,-0.36,-1.06,-0.1538071403320003,-0.19962203319685143,-0.4112432050011639
2025-02-06 13:15:41.318061,7.94,0.12,-1.06,-0.14726215563702155,0.14726215563702155,-0.02945243112740431
2025-02-06 13:15:41.428947,10.450000000000001,0.18,0.5,-0.04363323129985824,0.34797501961636945,0.2378011105842274
2025-02-06 13:15:41.537943,8.61,-0.45,-2.2800000000000002,-0.21925698728178766,-0.3643374813538163,-0.001090830782496456
2025-02-06 13:15:41.647004,8.67,-1.05,-0.13,-0.17780541754692233,-0.08399397025222712,0.17780541754692233
2025-02-06 13:15:41.757929,8.790000000000001,0.2,-1.7,0.06763150851478027,-0.09817477042468103,0.17998707911191522
2025-02-06 13:15:41.868767,10.72,-1.47,-0.23,-0.38724492778624187,0.4374231437810788,0.032724923474893676
2025-02-06 13:15:41.979811,8.67,-2.04,-1.34,-0.4308781590861001,-0.12762720155208535,0.2552544031041707
2025-02-06 13:15:42.088704,9.71,-2.58,-2.31,-0.14180800172453928,-0.21489366415180183,0.23125612588924865
2025-02-06 13:15:42.197553,8.6,-0.06,-1.1500000000000001,-0.1505346479845109,0.06544984694978735,-0.11344640137963143
2025-02-06 13:15:42.308062,9.83,-1.62,0.32,-0.24652775684419906,0.5846852994181004,0.025089107997418487
2025-02-06 13:15:42.418868,10.34,-2.93,0.17,0.09490227807719166,0.7264933011426397,0.08399397025222712
2025-02-06 13:15:42.530529,11.93,-3.73,0.39,0.20943951023931956,-0.4886921905584123,0.47669305195095124
2025-02-06 13:15:42.640276,8.76,-3.68,0.41000000000000003,-0.38288160465625604,0.2748893571891069,0.5966844380255614
2025-02-06 13:15:42.749269,9.75,-1.79,-1.1300000000000001,-0.8944812416470939,-0.34143003492139073,0.37088246604879505
2025-02-06 13:15:42.858308,8.03,-1.12,-1.09,-1.2893619849108109,0.4046982203061852,0.11562806294462433
2025-02-06 13:15:42.968810,10.99,-4.03,0.64,-1.1017390903214206,0.3665191429188092,-0.06217735460229799
2025-02-06 13:15:43.079499,10.66,-5.04,0.8300000000000001,-1.7835083293817056,0.4494222823885399,-0.43196898986859655
2025-02-06 13:15:43.190422,4.0200000000000005,-1.92,-2.04,-1.3908092476829814,-0.16035212502697901,-0.25416357232167425
2025-02-06 13:15:43.299422,9.94,-3.5700000000000003,1.84,-0.9610219193793778,-0.28688849579656794,-0.42215151282612845
2025-02-06 13:15:43.408598,7.05,-2.63,0.12,-0.7952156404399164,-0.05126904677733343,-0.32288591161895097
2025-02-06 13:15:43.519390,10.55,-1.22,-1.1500000000000001,-0.4799655442984406,-0.18762289458939044,-0.11780972450961724
2025-02-06 13:15:43.630211,10.56,-2.15,-1.34,-0.5105088062083414,-0.06654067773228381,-0.5159629601208237
2025-02-06 13:15:43.741250,10.92,-5.0,-2.0,-0.7352199474026113,-0.11999138607461016,-0.06981317007977318
2025-02-06 13:15:43.850134,9.22,-3.98,-1.4000000000000001,-0.8355763793922852,-0.12326387842209953,0.06872233929727672
2025-02-06 13:15:43.958975,9.72,-4.25,0.14,-0.8639379797371931,0.04690572364734761,0.4134248665661568
2025-02-06 13:15:44.069029,9.46,-3.7,-0.66,-0.4428772976935611,-0.08508480103472356,-0.08726646259971647
2025-02-06 13:15:44.179803,8.66,-3.44,-1.0,-0.5312345910757741,0.032724923474893676,0.23889194136672387
2025-02-06 13:15:44.290765,10.01,-2.81,-1.1400000000000001,-0.8890270877346116,0.09381144729469522,0.001090830782496456
2025-02-06 13:15:44.400676,10.5,-1.7,-0.89,-0.8170322560898455,0.32834006553143325,-0.11017390903214205
2025-02-06 13:15:44.509665,8.97,-1.7,-0.81,-0.3337942194439155,0.2454369260617026,-0.6446809924554054
2025-02-06 13:15:44.618762,9.950000000000001,-1.0,-4.6000000000000005,0.06981317007977318,-0.032724923474893676,-0.4286964975211072
2025-02-06 13:15:44.729465,8.8,-0.79,-3.5300000000000002,-0.4636030825609938,0.06763150851478027,0.2716168648416175
2025-02-06 13:15:44.840117,10.26,-1.36,-0.52,-0.025089107997418487,0.009817477042468103,0.5530512067257032
2025-02-06 13:15:44.950942,11.01,-1.28,-1.25,0.03381575425739013,0.2650718801466388,0.2683443724941282
2025-02-06 13:15:45.060001,12.780000000000001,-2.9,-0.73,0.14835298641951802,0.35452000431134817,0.559596191420682
2025-02-06 13:15:45.168787,8.43,-1.69,-2.8000000000000003,-1.3689926320330523,-0.08399397025222712,-0.2399827721492203
2025-02-06 13:15:45.279381,7.16,0.21,-2.81,-1.2588187230009102,0.3294308963139297,-0.08508480103472356
2025-02-06 13:15:45.390122,9.31,-1.68,-0.5,-1.894773069196344,0.32615840396644036,0.04581489286485115
2025-02-06 13:15:45.500556,10.36,-1.77,0.42,-1.4846206949776766,0.20507618710933373,-0.12544553998709243
2025-02-06 13:15:45.609675,9.18,0.62,-1.94,-0.928296995904484,0.13199052468207118,0.09272061651219876
2025-02-06 13:15:45.718675,10.38,-0.66,2.82,-0.002181661564992912,-0.20943951023931956,-0.2617993877991494
2025-02-06 13:15:45.831389,11.91,-4.58,0.93,-35.22401679759306,0.3490658503988659,0.3621558197888234
2025-02-06 13:15:45.942342,8.28,-2.59,0.96,0.7003133623627247,0.04145156973486533,0.41015237421866746
2025-02-06 13:15:46.053085,8.47,-1.53,-0.47000000000000003,0.9872018581592926,-0.050178215994836975,0.4046982203061852
2025-02-06 13:15:46.162781,8.120000000000001,-1.18,-2.0,0.9479319499894202,-0.10581058590215622,0.5126904677733343
2025-02-06 13:15:46.271860,10.200000000000001,-1.05,-1.22,0.3763366199612773,0.4930555136883981,0.5639595145506677
2025-02-06 13:15:46.381860,10.13,-2.43,-0.12,-0.23234695667174513,0.33161255787892263,0.24434609527920614
2025-02-06 13:15:46.492564,10.21,-3.71,-1.87,-0.38288160465625604,0.48978302134090873,0.4701480672559725
2025-02-06 13:15:46.603206,5.64,-1.6,-3.44,-0.21707532571679475,0.09708393964218458,-1.0853766285839737
2025-02-06 13:15:46.713674,9.67,-2.5300000000000002,0.16,-0.5301437602932776,0.3752457891787809,0.0272707695624114
2025-02-06 13:15:46.822676,7.67,-1.92,-0.32,-0.4134248665661568,0.4908738521234052,-0.004363323129985824
2025-02-06 13:15:46.931933,11.53,-1.19,-1.81,-0.30652344988150415,0.40578905108868163,-0.2007128639793479
2025-02-06 13:15:47.042691,10.94,-2.1,0.72,-0.46687557490848314,0.2378011105842274,-1.1475539831862718
2025-02-06 13:15:47.153460,9.120000000000001,-5.2,-1.12,-0.6948592084502424,0.4286964975211072,-0.6872233929727672
2025-02-06 13:15:47.263767,7.23,-2.95,-0.34,-0.8323038870447959,0.533416252640767,0.3097959422289935
2025-02-06 13:15:47.372391,8.2,-0.68,-1.24,-0.9599310885968813,0.09599310885968812,0.002181661564992912
2025-02-06 13:15:47.481273,9.89,-2.49,0.05,-1.1039207518864134,0.3043417883165112,-0.5126904677733343
2025-02-06 13:15:47.590893,10.33,-2.64,0.45,-1.1846422297911512,-0.019634954084936207,-0.5301437602932776
2025-02-06 13:15:47.701475,11.71,-3.9,0.0,-1.102829921103917,0.3370667117914049,0.2476185876266955
2025-02-06 13:15:47.812183,7.930000000000001,-1.5,-0.56,-1.038470904936626,0.06217735460229799,-0.037088246604879506
2025-02-06 13:15:47.922580,7.55,-0.8300000000000001,0.42,-0.868301302867179,0.09599310885968812,-0.1265363707695889
2025-02-06 13:15:48.031436,9.43,-0.62,0.33,-0.5061454830783556,-0.032724923474893676,-0.4341506514335895
2025-02-06 13:15:48.140749,10.89,-2.68,1.7,-0.14508049407202864,0.27707101875409984,-0.41560652813114973
2025-02-06 13:15:48.251610,11.15,-3.48,0.93,-0.22143864884678055,-0.04145156973486533,0.07853981633974483
2025-02-06 13:15:48.362299,9.67,-1.99,-0.16,-0.36106498900632694,0.22907446432425577,0.4657847441259867
2025-02-06 13:15:48.473196,8.25,-0.8300000000000001,0.02,-0.2530727415391778,0.020725784867432664,-0.003272492347489368
2025-02-06 13:15:48.582273,9.58,-1.61,-0.05,-0.40906154343617096,-0.1265363707695889,-0.16907877128695067
2025-02-06 13:15:48.691153,9.78,-1.05,-0.33,-0.21598449493429828,-0.2945243112740431,-0.46469391334349025
2025-02-06 13:15:48.801828,11.040000000000001,-3.37,-0.97,-0.33161255787892263,-0.031634092692397225,0.014180800172453928
2025-02-06 13:15:48.912283,8.92,-1.48,-1.55,-0.3719732968312915,0.1407171709420428,-0.09599310885968812
2025-02-06 13:15:49.023138,7.12,0.04,-0.17,-0.22143864884678055,0.10144726277217041,-0.17562375598192942
2025-02-06 13:15:49.132469,10.51,-0.32,-0.67,-0.18871372537188688,-0.019634954084936207,0.11235557059713497
2025-02-06 13:15:49.241422,10.75,-1.1400000000000001,0.6900000000000001,0.05235987755982989,-0.12217304763960307,-0.32834006553143325
2025-02-06 13:15:49.350471,9.870000000000001,-2.5100000000000002,0.4,-0.2694352032766246,-0.33597588100890846,-0.3425208657038872
2025-02-06 13:15:49.460906,8.49,-1.6400000000000001,-0.05,-0.08835729338221293,0.04799655442984406,0.24107360293171676
2025-02-06 13:15:49.571247,8.57,-0.89,-1.1300000000000001,0.009817477042468103,-0.17780541754692233,0.08508480103472356
2025-02-06 13:15:49.682260,10.02,-2.5,-1.02,-0.26398104936414235,0.16580627893946132,0.15926129424448257
2025-02-06 13:15:49.792733,7.53,-1.76,-2.75,-0.7526732399225546,-0.09708393964218458,0.43524148221608594
2025-02-06 13:15:49.901261,6.13,-1.58,-2.45,-0.5497787143782138,-0.3937899124812206,-0.06435901616729091
2025-02-06 13:15:50.011987,7.6000000000000005,-1.59,-1.62,-0.2007128639793479,0.4723297288209654,0.10581058590215622
2025-02-06 13:15:50.122885,8.15,-1.83,-1.79,-0.013089969389957472,-0.055632369907319255,-0.3097959422289935
2025-02-06 13:15:50.234572,8.88,-3.56,-1.6300000000000001,0.017453292519943295,0.2454369260617026,0.24434609527920614
2025-02-06 13:15:50.344101,8.43,-3.62,-1.68,0.17453292519943295,0.20289452554434081,-0.210530341021816
2025-02-06 13:15:50.453419,9.88,-4.62,1.1300000000000001,0.22471114119426994,0.4756022211684548,-0.4079707126536745
2025-02-06 13:15:50.564638,8.99,-2.25,-4.17,-0.45160394395353276,-0.770126532442498,0.2879793265790644
2025-02-06 13:15:50.675628,11.4,-3.62,1.17,-1.036289243371633,-1.6057029118347832,0.5443245604657315
2025-02-06 13:15:50.787010,12.73,-3.8200000000000003,-2.5100000000000002,-0.23125612588924865,-1.2282754610910094,0.1189005552921137
2025-02-06 13:15:50.896372,7.22,-2.94,-5.18,-0.3239767424014474,-0.9577494270318884,-0.43524148221608594
2025-02-06 13:15:51.005727,8.49,-4.61,-4.93,-0.3817907738737596,-0.45160394395353276,0.33597588100890846
2025-02-06 13:15:51.116729,8.61,-3.2800000000000002,-4.72,-0.28361600344907856,-0.8933904108645975,0.05781403147231216
2025-02-06 13:15:51.227676,10.02,-3.73,-4.61,-0.16580627893946132,-0.36760997370130566,0.459239759431008
2025-02-06 13:15:51.338622,7.43,-3.33,-5.22,0.10581058590215622,0.04145156973486533,-0.001090830782496456
2025-02-06 13:15:51.448047,7.55,-2.67,-3.22,-0.40251655874119224,0.3861540970037454,0.3239767424014474
2025-02-06 13:15:51.556971,7.5,-3.45,-5.26,0.16689710972195776,0.559596191420682,-0.40033489717619936
2025-02-06 13:15:51.666524,9.06,-4.0,-5.29,0.02945243112740431,-0.15489797111449674,-0.41996985126113556
2025-02-06 13:15:51.777606,8.43,-3.52,-4.66,0.12762720155208535,0.12871803233458182,-0.1265363707695889
2025-02-06 13:15:51.888922,8.65,-3.08,-2.97,-0.5039638215133626,-0.1265363707695889,0.14180800172453928
2025-02-06 13:15:51.999231,7.890000000000001,-3.11,-3.7,-0.5443245604657315,0.4385139745635753,-0.011999138607461015
2025-02-06 13:15:52.108543,8.790000000000001,-3.14,-3.7600000000000002,0.028361600344907856,0.5781403147231217,-0.2683443724941282
2025-02-06 13:15:52.217939,9.4,-2.45,-2.8000000000000003,-0.2716168648416175,0.34579335805137656,-0.06981317007977318
2025-02-06 13:15:52.328741,7.25,-3.38,-2.32,0.20507618710933373,0.1734420944169365,-0.13744467859455345
2025-02-06 13:15:52.440013,10.01,-1.56,-1.24,-0.7417649320975901,0.33488505022641196,0.1636246173744684
2025-02-06 13:15:52.550830,10.46,-3.59,-4.11,-0.1090830782496456,0.1538071403320003,0.0916297857297023
2025-02-06 13:15:52.660271,9.17,-2.65,-2.17,-0.08508480103472356,0.20943951023931956,-0.0719948316447661
2025-02-06 13:15:52.769247,9.200000000000001,-1.73,-1.85,0.23889194136672387,0.3916082509162277,-0.16144295580947549
2025-02-06 13:15:52.880183,8.99,-1.73,-1.22,0.11999138607461016,0.10253809355466686,-0.07963064712224129
2025-02-06 13:15:52.991404,9.32,-3.39,1.35,-0.07744898555724837,0.459239759431008,-0.1189005552921137
2025-02-06 13:15:53.102494,9.65,-1.5,-0.79,0.34470252726888007,0.3141592653589793,-0.22362031041177347
2025-02-06 13:15:53.212001,8.61,-2.29,-1.28,-0.27052603405912107,0.09926560120717749,0.06326818538479445
2025-02-06 13:15:53.322858,9.52,-1.8800000000000001,-0.8,-0.001090830782496456,0.002181661564992912,0.001090830782496456
2025-02-06 13:15:53.433842,9.51,-1.9100000000000001,-0.85,0.0,0.001090830782496456,0.0
2025-02-06 13:15:53.544739,9.53,-1.87,-0.86,0.0,0.0,0.002181661564992912
2025-02-06 13:15:53.655814,9.450000000000001,-1.9000000000000001,-0.8300000000000001,0.0,-0.004363323129985824,0.003272492347489368
2025-02-06 13:15:53.765117,9.49,-1.93,-0.87,0.1407171709420428,-0.001090830782496456,0.0
2025-02-06 13:15:53.875992,9.53,-1.86,-0.86,0.002181661564992912,-0.002181661564992912,0.002181661564992912
2025-02-06 13:15:53.987022,9.56,-1.84,-0.87,-0.002181661564992912,-0.003272492347489368,0.002181661564992912
2025-02-06 13:15:54.098478,9.52,-1.84,-0.86,0.1407171709420428,-0.003272492347489368,0.001090830782496456
2025-02-06 13:15:54.209440,9.53,-1.8800000000000001,-0.85,0.001090830782496456,0.002181661564992912,0.002181661564992912
2025-02-06 13:15:54.318710,9.52,-1.84,-0.87,0.001090830782496456,-0.001090830782496456,0.002181661564992912
2025-02-06 13:15:54.429862,9.51,-1.84,-0.87,0.0,0.002181661564992912,0.0
2025-02-06 13:15:54.540986,9.540000000000001,-1.8900000000000001,-0.87,0.001090830782496456,0.001090830782496456,0.001090830782496456
2025-02-06 13:15:54.651803,9.52,-1.8900000000000001,-0.85,-0.002181661564992912,0.004363323129985824,-0.001090830782496456
2025-02-06 13:15:54.762653,9.4,-1.84,-0.91,-0.002181661564992912,0.001090830782496456,-0.003272492347489368
2025-02-06 13:15:54.872329,9.540000000000001,-1.76,-0.68,-0.001090830782496456,0.0,0.0
2025-02-06 13:15:54.983478,9.51,-1.8800000000000001,-0.84,-0.001090830782496456,-0.003272492347489368,0.001090830782496456
2025-02-06 13:15:55.094530,9.49,-1.8900000000000001,-0.84,-0.001090830782496456,0.002181661564992912,0.0
2025-02-06 13:15:55.205332,9.52,-1.92,-0.85,-0.002181661564992912,0.001090830782496456,0.0
2025-02-06 13:15:55.316605,9.540000000000001,-1.8800000000000001,-0.84,0.001090830782496456,-0.001090830782496456,-0.001090830782496456
2025-02-06 13:15:55.426108,9.52,-1.8800000000000001,-0.85,0.001090830782496456,0.0,-0.002181661564992912
2025-02-06 13:15:55.537267,9.52,-1.87,-0.8,0.001090830782496456,0.0,0.001090830782496456
2025-02-06 13:15:55.648142,9.94,-3.06,-3.19,-3.136138499677311,0.6588617926278594,1.0701049976290233
2025-02-06 13:15:55.759258,9.53,-2.44,-1.78,-2.1762074110804295,-0.04036073895236887,0.04581489286485115
2025-02-06 13:15:55.870266,9.13,-0.21,0.0,-0.3076142806640006,-1.239183768915974,0.9053895494720584
2025-02-06 13:15:55.979870,9.74,-2.21,-1.51,-0.1734420944169365,-0.4243331743911214,0.039269908169872414
2025-02-06 13:15:56.090919,9.5,-2.04,-0.93,0.016362461737446838,0.001090830782496456,0.002181661564992912
2025-02-06 13:15:56.201842,9.85,-1.5,-1.3,0.061086523819801536,0.06217735460229799,-0.07090400086226964
2025-02-06 13:15:56.312873,9.82,-2.37,-1.32,-0.11562806294462433,0.001090830782496456,-0.11999138607461016
2025-02-06 13:15:56.424032,8.57,-3.4,-1.1300000000000001,-0.56941366846315,0.05890486225480862,0.05235987755982989
2025-02-06 13:15:56.533492,9.8,-2.0300000000000002,-2.0,-0.4286964975211072,0.006544984694978736,-0.017453292519943295
2025-02-06 13:15:56.642722,9.23,-2.17,-1.2,-0.04363323129985824,0.38724492778624187,0.011999138607461015
2025-02-06 13:15:56.753347,9.69,-1.5,-1.01,-0.856302164259718,0.1189005552921137,-0.031634092692397225
2025-02-06 13:15:56.864320,9.35,-1.83,0.17,-0.9675669040743564,0.16907877128695067,0.00545415391248228
2025-02-06 13:15:56.975085,9.51,-1.87,-0.3,-0.7057675162752071,-0.019634954084936207,0.006544984694978736
2025-02-06 13:15:57.084433,9.63,-1.62,-0.93,-0.22471114119426994,-0.3196134192714616,0.0272707695624114
2025-02-06 13:15:57.193651,10.26,-3.5500000000000003,-1.08,0.07963064712224129,-0.5803219762881145,0.2301652951067522
2025-02-06 13:15:57.305026,9.47,-1.44,-2.46,-0.11126473981463851,0.004363323129985824,0.001090830782496456
2025-02-06 13:15:57.415943,9.42,-1.67,-0.4,-0.17671458676442586,0.05890486225480862,0.05999569303730508
2025-02-06 13:15:57.526863,10.55,-2.17,-2.05,-0.7330382858376184,0.2203478180642841,0.038179077387375956
2025-02-06 13:15:57.636528,9.51,-1.8900000000000001,-0.62,-0.05235987755982989,-0.14180800172453928,-0.006544984694978736
2025-02-06 13:15:57.745569,9.55,-1.95,-0.55,-0.020725784867432664,-0.04799655442984406,-0.001090830782496456
2025-02-06 13:15:57.854699,9.56,-1.98,-0.61,-0.04690572364734761,0.04908738521234052,-0.00545415391248228
2025-02-06 13:15:57.965247,9.540000000000001,-1.94,-0.56,-0.05890486225480862,-0.1341721862470641,-0.008726646259971648
2025-02-06 13:15:58.076552,9.65,-2.05,-0.87,-0.04363323129985824,-0.08944812416470939,-0.0545415391248228
2025-02-06 13:15:58.187468,9.55,-1.8900000000000001,-0.47000000000000003,-0.003272492347489368,-0.006544984694978736,0.002181661564992912
2025-02-06 13:15:58.296596,9.53,-1.92,-0.61,0.011999138607461015,-0.014180800172453928,-0.004363323129985824
2025-02-06 13:15:58.405699,9.49,-1.9000000000000001,-0.42,0.013089969389957472,-0.025089107997418487,-0.003272492347489368
2025-02-06 13:15:58.516381,9.48,-1.97,-0.25,0.030543261909900768,0.11017390903214205,-0.002181661564992912
2025-02-06 13:15:58.626823,9.84,-1.2,0.07,-0.1407171709420428,-35.65271329511417,-0.015271630954950384
2025-02-06 13:15:58.737637,9.55,-1.9000000000000001,-0.41000000000000003,0.003272492347489368,0.016362461737446838,-0.003272492347489368
2025-02-06 13:15:58.846488,9.5,-2.19,-0.55,-0.08399397025222712,0.014180800172453928,-0.00545415391248228
2025-02-06 13:15:58.955394,9.33,-2.15,-0.58,-0.13853550937704992,0.050178215994836975,-0.008726646259971648
2025-02-06 13:15:59.066077,9.92,0.37,5.5200000000000005,-0.018544123302439753,0.2617993877991494,0.16798794050445423
2025-02-06 13:15:59.172550,9.57,-2.0100000000000002,-0.4,0.05235987755982989,-0.011999138607461015,-0.003272492347489368
2025-02-06 13:15:59.279235,9.56,-2.67,-1.27,-0.9381144729469522,0.13962634015954636,0.00545415391248228
2025-02-06 13:15:59.387797,9.38,-1.41,-0.2,-0.5563236990731926,0.07635815477475191,0.007635815477475192
2025-02-06 13:15:59.493950,9.450000000000001,-1.67,0.0,-0.9610219193793778,0.15162547876700738,0.011999138607461015
2025-02-06 13:15:59.598031,9.8,-2.12,-0.89,-0.5203262832508095,0.12980886311707826,-0.028361600344907856
2025-02-06 13:15:59.703730,9.66,-2.08,-0.79,-0.40251655874119224,0.017453292519943295,0.037088246604879506
2025-02-06 13:15:59.807827,9.59,-2.25,-0.76,-0.23452861823673804,0.002181661564992912,0.02399827721492203
2025-02-06 13:15:59.914691,9.540000000000001,-1.93,-0.4,0.00545415391248228,0.001090830782496456,-0.001090830782496456
2025-02-06 13:16:00.018816,9.47,-1.8900000000000001,-0.31,-0.002181661564992912,-0.00545415391248228,0.00545415391248228
2025-02-06 13:16:00.126061,9.51,-2.06,-0.55,0.0,-0.006544984694978736,0.0
2025-02-06 13:16:00.237282,9.53,-1.6500000000000001,-0.24,-1.0013826583317467,0.14944381720201447,0.008726646259971648
2025-02-06 13:16:00.341302,9.450000000000001,-1.81,0.4,-0.8246680715673207,0.1439896632895322,0.009817477042468103
2025-02-06 13:16:00.448721,8.89,-2.11,-1.33,-0.2476185876266955,0.18653206380689397,-0.07308566242726255
2025-02-06 13:16:00.552830,9.290000000000001,-3.45,1.34,0.8235772407848243,-0.5519603759432067,0.21489366415180183
2025-02-06 13:16:00.658652,9.44,-1.94,-0.8200000000000001,-0.004363323129985824,-0.00545415391248228,0.2683443724941282
2025-02-06 13:16:00.763566,8.65,-2.95,-0.9,-0.42542400517361784,0.20507618710933373,0.41560652813114973
2025-02-06 13:16:00.868159,8.92,-1.73,-0.86,-0.11344640137963143,-0.3043417883165112,-0.2617993877991494
2025-02-06 13:16:00.973913,9.5,-2.57,-0.68,-0.002181661564992912,-0.00545415391248228,-0.02945243112740431
2025-02-06 13:16:01.078522,9.46,-2.58,-0.74,0.002181661564992912,0.002181661564992912,0.017453292519943295
2025-02-06 13:16:01.184603,10.02,-3.25,-0.38,-0.013089969389957472,-0.025089107997418487,-0.11126473981463851
2025-02-06 13:16:01.291131,9.53,-1.76,-0.68,-0.08726646259971647,0.04363323129985824,0.18871372537188688
2025-02-06 13:16:01.397343,10.540000000000001,-3.5100000000000002,-0.62,-0.11780972450961724,0.9141161957320301,-0.1712604328519436
2025-02-06 13:16:01.505084,9.94,-3.18,0.73,-0.3043417883165112,0.19416787928436915,0.2977968036215325
2025-02-06 13:16:01.609808,9.61,-2.0,-0.29,-0.358883327441334,0.032724923474893676,0.031634092692397225
2025-02-06 13:16:01.714950,9.43,-1.82,-0.06,-0.061086523819801536,-0.002181661564992912,-0.07090400086226964
2025-02-06 13:16:01.820667,9.66,-1.87,0.62,-0.18871372537188688,-0.1832595714594046,-0.4756022211684548
2025-02-06 13:16:01.925768,9.55,-1.87,-0.02,-0.4363323129985824,0.06654067773228381,0.05890486225480862
2025-02-06 13:16:02.030961,9.77,-2.71,-0.45,0.015271630954950384,0.1505346479845109,-0.2585268954516601
2025-02-06 13:16:02.137575,9.370000000000001,-1.8900000000000001,-0.33,-0.08617563181722002,0.013089969389957472,0.00545415391248228
2025-02-06 13:16:02.242502,9.75,-1.82,-0.01,0.0916297857297023,0.028361600344907856,0.22580197197676638
2025-02-06 13:16:02.349993,9.72,-2.43,-0.28,-0.08072147790473774,0.008726646259971648,0.1407171709420428
2025-02-06 13:16:02.454495,9.52,-2.16,0.93,-0.10035643198967395,-0.2378011105842274,0.9195703496445123
2025-02-06 13:16:02.561950,9.17,-1.17,-0.93,-0.41560652813114973,-0.29888763440402893,0.03599741582238305
2025-02-06 13:16:02.666467,9.73,-0.79,-0.32,-0.619591884457987,-0.05126904677733343,-0.08944812416470939
2025-02-06 13:16:02.770982,9.74,-2.31,-0.9500000000000001,-0.11562806294462433,0.04036073895236887,0.12326387842209953
2025-02-06 13:16:02.875748,9.78,-1.61,-1.81,-0.009817477042468103,-0.07744898555724837,0.14726215563702155
2025-02-06 13:16:02.980355,9.51,-1.94,-0.77,0.07744898555724837,0.007635815477475192,0.0719948316447661
2025-02-06 13:16:03.085204,9.68,-1.98,-0.73,0.022907446432425576,-0.030543261909900768,35.65489495667916
2025-02-06 13:16:03.189826,9.81,-3.06,-0.5700000000000001,0.04690572364734761,0.07963064712224129,0.18980455615438332
2025-02-06 13:16:03.296696,9.56,-2.15,-0.54,0.11017390903214205,0.2203478180642841,-0.02399827721492203
2025-02-06 13:16:03.400940,9.47,-2.37,-0.8300000000000001,0.1407171709420428,0.2454369260617026,-0.12435470920459599
2025-02-06 13:16:03.508112,9.370000000000001,-2.05,-0.8200000000000001,0.008726646259971648,0.0272707695624114,0.044724062082354694
2025-02-06 13:16:03.613546,9.33,-2.07,-1.08,0.004363323129985824,-0.032724923474893676,0.020725784867432664
2025-02-06 13:16:03.720252,9.48,-1.61,-0.93,-0.3883357585687383,-0.8901179185171081,0.1308996938995747
2025-02-06 13:16:03.824888,9.52,-2.05,-0.98,0.003272492347489368,-0.002181661564992912,0.002181661564992912
2025-02-06 13:16:03.930239,9.48,-2.05,-0.93,0.002181661564992912,-0.003272492347489368,0.0
2025-02-06 13:16:04.034763,9.5,-2.05,-0.9500000000000001,0.002181661564992912,-0.003272492347489368,0.002181661564992912
2025-02-06 13:16:04.141804,9.48,-2.02,-0.9500000000000001,-0.002181661564992912,-0.001090830782496456,-0.002181661564992912
2025-02-06 13:16:04.250573,9.47,-2.02,-0.9500000000000001,0.07635815477475191,0.009817477042468103,0.04799655442984406
2025-02-06 13:16:04.362042,9.540000000000001,-2.12,-0.91,0.00545415391248228,0.014180800172453928,0.031634092692397225
2025-02-06 13:16:04.473098,9.5,-2.08,-0.89,0.001090830782496456,0.001090830782496456,0.004363323129985824
2025-02-06 13:16:04.582511,9.49,-2.1,-0.9,0.002181661564992912,-0.001090830782496456,-0.001090830782496456
2025-02-06 13:16:04.691967,9.49,-2.08,-0.9,0.03490658503988659,-0.003272492347489368,0.002181661564992912
2025-02-06 13:16:04.802809,9.51,-2.1,-0.89,0.004363323129985824,0.006544984694978736,0.013089969389957472
2025-02-06 13:16:04.913495,9.49,-2.11,-0.9,0.003272492347489368,0.001090830782496456,0.001090830782496456
2025-02-06 13:16:05.024171,9.49,-2.07,-0.92,0.001090830782496456,0.001090830782496456,-0.002181661564992912
2025-02-06 13:16:05.134305,9.48,-2.09,-0.89,0.002181661564992912,0.003272492347489368,-0.002181661564992912
2025-02-06 13:16:05.241061,9.370000000000001,-2.07,-0.9,0.0,0.017453292519943295,0.030543261909900768
2025-02-06 13:16:05.346505,9.290000000000001,-1.81,-0.91,-0.003272492347489368,-0.030543261909900768,-0.06435901616729091
2025-02-06 13:16:05.451615,9.52,-2.1,-0.91,0.002181661564992912,-0.02945243112740431,-0.04690572364734761
2025-02-06 13:16:05.558536,9.5,-2.0,-0.91,0.002181661564992912,0.002181661564992912,0.0
2025-02-06 13:16:05.664465,9.5,-2.07,-0.9400000000000001,0.001090830782496456,0.004363323129985824,0.002181661564992912
2025-02-06 13:16:05.775585,9.48,-2.0100000000000002,-0.9400000000000001,0.002181661564992912,-0.002181661564992912,-0.003272492347489368
2025-02-06 13:16:05.886699,9.42,-1.94,-0.98,0.006544984694978736,0.026179938779914945,0.05672320068981571
2025-02-06 13:16:05.996919,9.49,-2.1,-0.9,0.001090830782496456,0.00545415391248228,0.006544984694978736
2025-02-06 13:16:06.107748,9.49,-2.06,-0.91,0.002181661564992912,0.0,0.00545415391248228
2025-02-06 13:16:06.218739,9.49,-2.09,-0.9400000000000001,0.001090830782496456,-0.001090830782496456,-0.001090830782496456
2025-02-06 13:16:06.329689,9.48,-2.09,-0.93,-0.001090830782496456,-0.002181661564992912,0.0
2025-02-06 13:16:06.440663,9.5,-2.08,-0.91,0.002181661564992912,-0.001090830782496456,0.0
2025-02-06 13:16:06.550151,8.89,-1.5,-1.81,0.0272707695624114,0.061086523819801536,0.22143864884678055
2025-02-06 13:16:06.659604,9.82,-2.02,-0.39,-0.21162117180431245,-0.08072147790473774,-0.21380283336930536
2025-02-06 13:16:06.770917,9.540000000000001,-1.94,-0.97,0.019634954084936207,-0.001090830782496456,0.0
2025-02-06 13:16:06.882203,9.78,-2.2800000000000002,-0.9,0.0719948316447661,0.10690141668465268,0.210530341021816
2025-02-06 13:16:06.993163,9.5,-2.05,-0.98,0.011999138607461015,-0.00545415391248228,0.01090830782496456
2025-02-06 13:16:07.103081,9.49,-2.04,-0.8300000000000001,0.015271630954950384,0.003272492347489368,0.00545415391248228
2025-02-06 13:16:07.212299,9.23,-2.35,-0.97,0.1090830782496456,0.21380283336930536,0.2901609881440573
2025-02-06 13:16:07.323505,9.38,-2.6,-0.27,-0.003272492347489368,0.12435470920459599,0.02945243112740431
2025-02-06 13:16:07.434285,9.34,-2.6,-0.44,-0.11780972450961724,-0.5443245604657315,-0.3687008044838021
2025-02-06 13:16:07.545157,9.53,-2.15,-0.65,0.08835729338221293,0.0,-0.026179938779914945
2025-02-06 13:16:07.650208,9.34,-1.83,-0.46,-0.06981317007977318,0.07090400086226964,0.025089107997418487
2025-02-06 13:16:07.759448,9.47,-2.19,-0.81,0.2814343418840856,-0.028361600344907856,-0.03490658503988659
2025-02-06 13:16:07.864529,9.5,-2.2600000000000002,-0.87,0.06763150851478027,-0.008726646259971648,0.04581489286485115
2025-02-06 13:16:07.969791,9.44,-2.39,-0.97,-0.031634092692397225,0.007635815477475192,-0.020725784867432664
2025-02-06 13:16:08.077035,9.64,-2.48,-0.9400000000000001,-0.27052603405912107,0.03381575425739013,0.037088246604879506
2025-02-06 13:16:08.182315,9.88,-1.48,-2.79,-0.006544984694978736,-0.016362461737446838,0.038179077387375956
2025-02-06 13:16:08.293439,9.48,-2.2800000000000002,-1.03,-0.17998707911191522,0.03381575425739013,-0.013089969389957472
2025-02-06 13:16:08.404454,9.44,-2.32,-0.9,-0.009817477042468103,0.02945243112740431,0.004363323129985824
2025-02-06 13:16:08.513976,9.21,-2.39,-2.46,-0.8290313946973066,0.10799224746714914,-0.1308996938995747
2025-02-06 13:16:08.625235,9.43,-2.22,-1.01,0.006544984694978736,-0.001090830782496456,0.018544123302439753
2025-02-06 13:16:08.736606,9.540000000000001,-2.7,-0.21,-0.21925698728178766,0.03490658503988659,0.04036073895236887
2025-02-06 13:16:08.847860,9.49,-2.31,-1.17,-0.04254240051736178,0.0272707695624114,0.038179077387375956
2025-02-06 13:16:08.954802,9.63,-2.34,-0.71,-0.47451139038595835,0.0916297857297023,0.044724062082354694
2025-02-06 13:16:09.064233,9.48,-2.05,-1.03,-0.1734420944169365,0.013089969389957472,-0.009817477042468103
2025-02-06 13:16:09.172673,9.5,-2.0300000000000002,-0.8200000000000001,-0.48432886742842646,0.04254240051736178,-0.015271630954950384
2025-02-06 13:16:09.279287,9.5,-2.14,-0.8200000000000001,-0.49632800603588745,0.08072147790473774,0.016362461737446838
2025-02-06 13:16:09.386412,9.51,-1.79,-1.48,-0.1407171709420428,-0.00545415391248228,-0.06217735460229799
2025-02-06 13:16:09.496788,9.5,-2.49,-1.04,0.017453292519943295,0.039269908169872414,0.05999569303730508
2025-02-06 13:16:09.608230,9.450000000000001,-2.36,-1.0,0.025089107997418487,0.02945243112740431,0.06981317007977318
2025-02-06 13:16:09.717700,9.49,-2.45,-1.23,0.46469391334349025,-0.01090830782496456,0.008726646259971648
2025-02-06 13:16:09.826219,9.36,-2.29,-1.0,0.6174102228929941,0.025089107997418487,0.30870511144649704
2025-02-06 13:16:09.938797,9.200000000000001,-2.7,-0.74,0.061086523819801536,-0.039269908169872414,-0.12762720155208535
2025-02-06 13:16:10.043566,9.34,-3.2600000000000002,-0.67,0.3108867730114899,0.017453292519943295,0.24434609527920614
2025-02-06 13:16:10.156758,9.32,-3.1,-0.58,0.009817477042468103,0.02181661564992912,0.09817477042468103
2025-02-06 13:16:10.263020,9.3,-3.0700000000000003,-0.61,0.004363323129985824,0.009817477042468103,0.04145156973486533
2025-02-06 13:16:10.367587,9.34,-3.0300000000000002,-0.6,0.002181661564992912,0.003272492347489368,0.015271630954950384
2025-02-06 13:16:10.472646,9.32,-3.06,-0.58,0.004363323129985824,0.002181661564992912,0.013089969389957472
2025-02-06 13:16:10.577253,9.3,-3.04,-0.59,0.0,0.00545415391248228,0.00545415391248228
2025-02-06 13:16:10.684165,9.370000000000001,-3.0,-0.55,0.001090830782496456,-0.002181661564992912,-0.006544984694978736
2025-02-06 13:16:10.788679,9.3,-3.02,-0.56,0.0,0.001090830782496456,0.001090830782496456
2025-02-06 13:16:10.895558,9.290000000000001,-3.0,-0.56,-0.002181661564992912,0.001090830782496456,-0.002181661564992912
2025-02-06 13:16:11.000124,9.27,-3.0100000000000002,-0.63,0.0,0.0,-0.006544984694978736
2025-02-06 13:16:11.107144,9.27,-3.04,-0.59,0.001090830782496456,-0.003272492347489368,0.0
2025-02-06 13:16:11.212102,9.28,-3.0300000000000002,-0.61,0.001090830782496456,-0.001090830782496456,0.001090830782496456
2025-02-06 13:16:11.318910,9.3,-2.99,-0.59,-0.001090830782496456,0.002181661564992912,0.001090830782496456
2025-02-06 13:16:11.423449,9.26,-3.04,-0.58,-0.001090830782496456,0.002181661564992912,0.002181661564992912
2025-02-06 13:16:11.528242,9.28,-3.04,-0.59,0.001090830782496456,0.002181661564992912,0.001090830782496456
2025-02-06 13:16:11.633100,9.3,-3.0500000000000003,-0.6,0.001090830782496456,-0.001090830782496456,0.003272492347489368
2025-02-06 13:16:11.740504,9.3,-3.0500000000000003,-0.6,0.0,0.001090830782496456,0.002181661564992912
2025-02-06 13:16:11.845089,9.26,-3.04,-0.62,0.001090830782496456,-0.001090830782496456,0.0
2025-02-06 13:16:11.952243,9.290000000000001,-3.0500000000000003,-0.61,0.0,-0.001090830782496456,-0.002181661564992912
2025-02-06 13:16:12.057209,9.28,-3.06,-0.61,0.0,-0.003272492347489368,0.0
2025-02-06 13:16:12.163927,9.28,-3.06,-0.6,-0.001090830782496456,-0.002181661564992912,0.0
2025-02-06 13:16:12.269411,9.28,-3.06,-0.6,-0.001090830782496456,-0.001090830782496456,0.002181661564992912
2025-02-06 13:16:12.375978,9.28,-3.0500000000000003,-0.6,-0.001090830782496456,0.00545415391248228,0.001090830782496456
2025-02-06 13:16:12.480550,9.3,-3.0500000000000003,-0.59,0.002181661564992912,-0.002181661564992912,0.001090830782496456
2025-02-06 13:16:12.586316,9.290000000000001,-3.06,-0.58,0.001090830782496456,0.003272492347489368,-0.002181661564992912
2025-02-06 13:16:12.691595,9.31,-3.08,-0.64,-0.001090830782496456,0.002181661564992912,0.00545415391248228
2025-02-06 13:16:12.798139,9.290000000000001,-3.1,-0.64,-0.001090830782496456,0.002181661564992912,0.003272492347489368
2025-02-06 13:16:12.903430,9.25,-3.0700000000000003,-0.64,-0.001090830782496456,-0.001090830782496456,-0.002181661564992912
2025-02-06 13:16:13.009792,9.27,-3.0500000000000003,-0.61,-0.002181661564992912,0.0,0.0
