Time,AccX,AccY,AccZ,GyroX,GyroY,GyroZ
2025-02-10 15:42:27.495561,0.0,0.0,0.0,0.007635815477475192,-0.018544123302439753,-0.004363323129985824
2025-02-10 15:42:27.602389,7.43,2.7800000000000002,-4.97,-0.038179077387375956,0.030543261909900768,0.032724923474893676
2025-02-10 15:42:27.707039,-0.44,-0.22,-0.28,0.04145156973486533,-0.04145156973486533,-0.03599741582238305
2025-02-10 15:42:27.814139,-0.45,-0.11,-0.36,-0.01090830782496456,0.009817477042468103,0.004363323129985824
2025-02-10 15:42:27.918681,-0.45,-0.16,-0.28,-0.02181661564992912,0.01090830782496456,0.025089107997418487
2025-02-10 15:42:28.025464,-0.38,-0.2,-0.3,-0.031634092692397225,0.016362461737446838,-0.04036073895236887
2025-02-10 15:42:28.130213,-0.45,-0.07,-0.3,0.009817477042468103,-0.025089107997418487,0.006544984694978736
2025-02-10 15:42:28.237166,-0.39,-0.22,-0.26,-0.04363323129985824,0.04581489286485115,-0.02181661564992912
2025-02-10 15:42:28.342258,-0.44,-0.15,-0.22,0.03599741582238305,-0.050178215994836975,0.02181661564992912
2025-02-10 15:42:28.446746,-0.45,-0.16,-0.31,-0.028361600344907856,0.032724923474893676,-0.02945243112740431
2025-02-10 15:42:28.551579,-0.45,-0.13,-0.26,0.009817477042468103,-0.02181661564992912,0.038179077387375956
2025-02-10 15:42:28.656075,-0.44,-0.18,-0.27,-0.007635815477475192,0.014180800172453928,-0.028361600344907856
2025-02-10 15:42:28.761180,-0.02,0.03,-0.02,0.017453292519943295,-0.026179938779914945,0.009817477042468103
2025-02-10 15:42:28.867279,-0.03,-0.01,-0.04,-0.017453292519943295,0.011999138607461015,-0.00545415391248228
2025-02-10 15:42:28.973078,-0.03,-0.01,0.03,0.001090830782496456,-0.00545415391248228,-0.001090830782496456
2025-02-10 15:42:29.079534,-0.05,0.02,0.0,0.013089969389957472,-0.017453292519943295,-0.015271630954950384
2025-02-10 15:42:29.184967,-0.01,0.0,-0.04,-0.00545415391248228,0.002181661564992912,0.002181661564992912
2025-02-10 15:42:29.292415,-0.06,0.01,0.01,-0.00545415391248228,-0.00545415391248228,0.00545415391248228
2025-02-10 15:42:29.397334,-0.14,0.09,-0.08,-0.34143003492139073,-0.061086523819801536,0.06435901616729091
2025-02-10 15:42:29.501836,-0.16,0.05,-0.19,-0.34470252726888007,0.01090830782496456,0.16907877128695067
2025-02-10 15:42:29.606739,0.66,-0.19,-0.05,0.07308566242726255,-0.8039422866998881,-0.13744467859455345
2025-02-10 15:42:29.711364,-0.4,0.46,-0.1,-0.6784967467127956,-0.02181661564992912,0.08726646259971647
2025-02-10 15:42:29.816258,-0.45,-0.49,0.51,0.013089969389957472,0.11671889372712078,0.17780541754692233
2025-02-10 15:42:29.920776,-0.15,0.31,-0.01,0.5137812985558308,0.43196898986859655,0.4308781590861001
2025-02-10 15:42:30.028030,-0.08,0.37,-0.39,-0.07526732399225546,0.04254240051736178,0.2792526803190927
2025-02-10 15:42:30.132832,-0.37,-1.06,1.26,0.29888763440402893,-0.12871803233458182,0.06435901616729091
2025-02-10 15:42:30.239823,-0.12,0.63,-0.24,0.20616701789183017,0.433059820651093,0.003272492347489368
2025-02-10 15:42:30.345311,-0.39,-0.34,0.39,0.5377795757707527,0.45814892864851153,0.5170537909033202
2025-02-10 15:42:30.452018,-1.3,-0.11,-0.24,0.8824821030396329,-0.5835944686356039,0.35779249665883756
2025-02-10 15:42:30.556552,-0.15,0.5,-0.13,-1.36353847812057,-0.210530341021816,0.3719732968312915
2025-02-10 15:42:30.661136,0.04,0.23,-0.27,-1.5915221116623293,-0.7733990247899872,-0.055632369907319255
2025-02-10 15:42:30.766158,1.32,1.2,1.07,-2.2285672886402597,1.2075496762235767,1.4420782944603148
2025-02-10 15:42:30.870638,-2.89,0.99,-0.02,-1.5140731261050808,1.2959069696057897,-0.31525009614147576
2025-02-10 15:42:30.975810,-0.19,-0.88,-0.61,0.5890486225480862,0.018544123302439753,0.49741883681838395
2025-02-10 15:42:31.082247,-0.59,2.36,-0.74,-0.03381575425739013,-0.743946593662583,0.28688849579656794
2025-02-10 15:42:31.187845,0.66,-3.2,0.87,-4.138611988791554,1.8740472843289113,1.6907877128695068
2025-02-10 15:42:31.294725,0.15,1.18,0.97,0.6185010536754906,0.6130468997630083,0.6239552075879728
2025-02-10 15:42:31.399741,1.1300000000000001,-0.22,-0.4,-1.8216874067690814,1.0133817969392076,-0.04145156973486533
2025-02-10 15:42:31.509965,0.03,-0.43,-0.06,-0.7068583470577035,1.2980886311707827,-1.646063650787152
2025-02-10 15:42:31.618790,-1.27,0.5,0.3,-0.2203478180642841,-0.17671458676442586,-0.2923426497090502
2025-02-10 15:42:31.727407,-1.29,0.0,-0.85,-2.107485071783153,0.8944812416470939,-1.4148075248979033
2025-02-10 15:42:31.838644,-0.52,0.14,0.28,-1.4169891864628963,0.3010692959690218,-0.45160394395353276
2025-02-10 15:42:31.949371,0.02,0.13,0.12,0.22689280275926285,0.2301652951067522,-0.03599741582238305
2025-02-10 15:42:32.059625,-0.22,-0.08,-0.13,-0.05235987755982989,-0.05890486225480862,-0.04908738521234052
2025-02-10 15:42:32.168490,0.42,0.93,-0.73,-0.008726646259971648,-0.04581489286485115,-0.2301652951067522
2025-02-10 15:42:32.277146,0.08,0.26,0.18,0.5770494839406252,0.4177881896961426,0.5748678223756323
2025-02-10 15:42:32.387034,0.02,-0.17,0.23,0.5977752688080579,-0.39924406639370286,0.2519819107566813
2025-02-10 15:42:32.497143,1.28,-0.22,0.26,0.4505131131710363,-0.7199483164476609,0.032724923474893676
2025-02-10 15:42:32.608359,-1.68,-0.54,-0.74,-1.299179461953279,0.5541420375081997,-0.5214171140333059
2025-02-10 15:42:32.719686,0.0,0.16,-0.14,-0.18544123302439752,-0.35997415822383044,-0.5606870222031783
2025-02-10 15:42:32.828905,-0.31,-0.45,0.32,-0.385063266221249,-0.5017821599483697,-0.5279620987282847
2025-02-10 15:42:32.937916,-0.61,-0.13,1.27,-0.008726646259971648,0.40578905108868163,-0.6752242543653062
2025-02-10 15:42:33.048901,0.41000000000000003,-0.17,-0.06,1.598067096357308,-1.471530725587719,0.22580197197676638
2025-02-10 15:42:33.160039,-1.6300000000000001,-1.48,0.8300000000000001,1.8358682069415353,3.1557734537622473,-0.4134248665661568
2025-02-10 15:42:33.270577,-0.25,-0.37,-0.23,-0.4690572364734761,1.547888880362471,-1.5009831567151235
2025-02-10 15:42:33.381016,-1.12,-1.42,-1.44,-0.24980024919168842,-0.10690141668465268,0.1265363707695889
2025-02-10 15:42:33.487789,-1.1500000000000001,-1.75,-0.11,-0.3861540970037454,-0.21925698728178766,-1.8795014382413937
2025-02-10 15:42:33.596009,0.34,0.39,0.7000000000000001,2.3769202750597778,0.02945243112740431,0.5868669609830933
2025-02-10 15:42:33.704583,2.5100000000000002,-1.87,1.71,-3.136138499677311,-0.15271630954950383,-1.22500296874352
2025-02-10 15:42:33.815410,0.58,1.47,-0.92,-0.9075712110370514,-1.7496925751243153,0.5901394533305827
2025-02-10 15:42:33.925824,-0.12,-0.16,-0.18,-0.04690572364734761,-0.27379852640661045,1.0112001353742146
2025-02-10 15:42:34.036759,0.65,1.05,0.43,-1.7016960206944713,-0.7875798249624412,0.04363323129985824
2025-02-10 15:42:34.145076,-2.98,1.6500000000000001,-0.7000000000000001,-3.1874075464546445,2.040944394050869,2.8797932657906435
2025-02-10 15:42:34.256335,1.34,-2.81,1.1500000000000001,0.20725784867432664,0.09272061651219876,-0.9632035809443706
2025-02-10 15:42:34.367254,1.09,-0.42,0.35000000000000003,-1.4911656796726553,-3.7360954300503617,0.928296995904484
2025-02-10 15:42:34.479467,-1.87,-0.17,-0.54,0.1908953869368798,0.5868669609830933,-2.2242039655102737
2025-02-10 15:42:34.589489,-0.49,-1.3900000000000001,-0.48,-0.12435470920459599,-0.4276056667386107,-0.8628471489546967
2025-02-10 15:42:34.699416,-0.17,0.09,1.24,-0.32070425005395803,0.3981532356112064,0.30543261909900765
2025-02-10 15:42:34.810356,0.76,-2.15,-3.0100000000000002,-5.103997231300918,1.770418359991748,0.9752027195518317
2025-02-10 15:42:34.921345,2.64,-1.95,-0.01,-2.2623830428976497,1.3886275861179884,-0.5017821599483697
2025-02-10 15:42:35.033077,-0.55,-0.48,0.13,0.5465062220307244,0.11780972450961724,-0.12326387842209953
2025-02-10 15:42:35.140197,-3.37,4.5,1.62,-7.732899417117376,4.293509959906051,16.280649428759606
2025-02-10 15:42:35.244654,30.92,-10.65,-4.57,-17.66164119940012,-2.616903047208998,-13.96154318517214
2025-02-10 15:42:35.348858,-11.71,0.85,-4.09,6.886414729900126,-2.01912777840094,1.2424562612634633
2025-02-10 15:42:35.453358,5.5,-5.32,3.7800000000000002,-5.993024319035529,2.7259861254586433,4.953462583316407
2025-02-10 15:42:35.557543,4.93,-4.1,-0.72,1.3100877697782436,-2.4685500607894797,0.753764070705051
2025-02-10 15:42:35.664908,-1.87,2.6,-0.8,1.770418359991748,-0.6250460383704692,3.811362754042617
2025-02-10 15:42:35.769275,-0.36,2.43,1.36,1.9580412545811385,-0.04036073895236887,1.0559241974565694
2025-02-10 15:42:35.876669,0.6,0.98,-0.3,0.6686792696703275,-0.3436116964863836,-0.6926775468852495
2025-02-10 15:42:35.980926,-0.62,-0.39,0.51,-1.6733344203495635,-0.7515824091400581,-1.074468320759009
2025-02-10 15:42:36.087985,-1.85,-1.59,-0.86,-2.3365595361074085,1.1726430911836903,-2.2242039655102737
2025-02-10 15:42:36.191993,-1.8,-1.92,-0.72,0.10035643198967395,0.35997415822383044,-0.06872233929727672
2025-02-10 15:42:36.295962,-1.6600000000000001,-1.32,0.34,0.24652775684419906,-0.7930339788749234,1.1802789066611654
2025-02-10 15:42:36.400146,0.03,-1.1300000000000001,0.18,-1.1039207518864134,-0.5006913291658733,1.1791880758786688
2025-02-10 15:42:36.504096,-0.06,-0.16,1.27,-0.770126532442498,0.11562806294462433,0.16253378659197193
2025-02-10 15:42:36.608072,-0.8200000000000001,0.18,1.41,-0.14835298641951802,-0.605411084285533,-0.06981317007977318
2025-02-10 15:42:36.712181,-1.16,-1.0,0.2,0.32506757318394386,0.3763366199612773,-1.030835089459151
2025-02-10 15:42:36.816105,-1.17,-3.2,-1.07,-0.6152285613280012,-0.4385139745635753,-1.50207398749762
2025-02-10 15:42:36.923178,-2.06,-3.83,-1.3,0.19634954084936207,-1.3919000784654778,-0.7526732399225546
2025-02-10 15:42:37.027121,-1.34,-0.29,-0.51,-3.184135054107155,2.6398104936414235,0.5726861608106394
2025-02-10 15:42:37.136005,-0.18,2.91,-1.34,-1.5642513420999178,1.3569934934255912,1.423534171157875
2025-02-10 15:42:37.242395,0.92,1.41,-1.05,-1.1639164449237185,0.6065019150680295,-2.320197074369962
2025-02-10 15:42:37.349606,-1.12,-2.5300000000000002,-0.19,-1.7235126363444004,1.6351553429621875,-1.3864459245529954
2025-02-10 15:42:37.454197,-0.44,-2.92,-1.54,0.9893835197242855,0.9021170571245691,1.7955074679891665
2025-02-10 15:42:37.558606,2.43,-4.64,-0.26,-1.2097313377885697,-2.3387411976724017,-0.12871803233458182
2025-02-10 15:42:37.663071,-2.4,2.31,-0.7000000000000001,-0.23343778745424157,-0.5606870222031783,1.2500920767409385
2025-02-10 15:42:37.767258,0.06,0.53,0.49,0.022907446432425576,0.28361600344907856,0.16144295580947549
2025-02-10 15:42:37.872070,0.62,-2.12,0.0,-0.8617563181722002,0.5552328682906961,-0.6643159465403417
2025-02-10 15:42:37.982326,-2.94,-0.2,-1.05,1.2642728769133924,-1.1540989678812503,-0.5912302841130791
2025-02-10 15:42:38.089085,-0.27,-1.2,-0.09,2.3747386134947845,-1.2959069696057897,1.0461067204141012
2025-02-10 15:42:38.194303,0.75,-1.26,1.55,2.21002316533782,0.3687008044838021,0.9632035809443706
2025-02-10 15:42:38.301563,1.05,0.35000000000000003,-0.46,-0.23125612588924865,1.4540774330677757,1.2686362000433782
2025-02-10 15:42:38.406455,0.46,0.32,-1.7,-0.5115996369908379,0.48105637508093707,-1.0635600129340446
2025-02-10 15:42:38.511068,0.85,-0.05,-1.6,-1.2762720155208536,0.10362892433716332,-0.8017606251348951
2025-02-10 15:42:38.615867,3.8000000000000003,-2.8000000000000003,-0.28,0.4308781590861001,-0.8115781021773633,-1.2806353386508393
2025-02-10 15:42:38.720577,-2.14,-1.03,-0.3,-0.2977968036215325,-0.037088246604879506,-0.08944812416470939
2025-02-10 15:42:38.825542,0.34,-2.14,2.68,3.633557336495695,-1.227184630308513,0.940296134511945
2025-02-10 15:42:38.930116,-1.46,0.84,-3.97,-0.7930339788749234,1.2806353386508393,0.868301302867179
2025-02-10 15:42:39.037339,-0.12,0.8200000000000001,-2.5,8.87718090795616,-1.9242255003237483,0.7853981633974483
2025-02-10 15:42:39.142285,-0.14,-0.15,-1.16,-4.2891466367760644,0.23234695667174513,1.038470904936626
2025-02-10 15:42:39.249267,1.07,-3.17,3.9,-3.1546826229797507,1.8576848225914646,2.069305994395777
2025-02-10 15:42:39.354884,-1.77,1.86,-2.27,1.421352509592882,0.3327033886614191,1.3231777391682011
2025-02-10 15:42:39.461346,0.81,1.24,-2.2,0.22143864884678055,-1.3962634015954636,-1.5337080801900171
2025-02-10 15:42:39.566142,0.48,-7.19,7.84,0.5966844380255614,-0.3294308963139297,0.09490227807719166
2025-02-10 15:42:39.670888,-0.36,1.6500000000000001,-4.01,-1.2849986617808251,5.794493116621174,1.559888018969932
2025-02-10 15:42:39.775420,1.25,-0.88,-3.47,-1.0450158896316049,-1.0962849364089382,-3.284491486096829
2025-02-10 15:42:39.879962,-0.52,-7.09,4.4,2.5012749842643736,-0.6861325621902709,1.9187713464112661
2025-02-10 15:42:39.984782,-0.77,3.91,-3.65,-3.404482872171439,3.7710020150902483,2.181661564992912
2025-02-10 15:42:40.090745,1.55,1.11,-2.79,-0.6359543461954338,-1.9405879620611952,-1.894773069196344
2025-02-10 15:42:40.196551,0.99,-5.61,1.53,-0.36760997370130566,0.08944812416470939,0.19853120241435498
2025-02-10 15:42:40.306876,0.98,1.47,-2.16,0.6719517620178169,-0.09708393964218458,1.750783405906812
2025-02-10 15:42:40.417866,0.06,-1.71,0.79,-2.5241824306967993,-0.16798794050445423,-1.1519173063162575
2025-02-10 15:42:40.527089,-2.23,0.02,-2.4,-3.069597821945027,2.2307489502052524,1.96676790084111
2025-02-10 15:42:40.636144,-0.21,0.23,-1.69,-1.261000384565903,-0.45160394395353276,-1.8576848225914646
2025-02-10 15:42:40.746861,1.55,-0.16,-0.05,-3.7284596145728863,0.2399827721492203,-0.6392268385429232
2025-02-10 15:42:40.857532,1.09,1.18,-0.25,-0.6599526234103559,1.736602605734358,0.6043202535030366
2025-02-10 15:42:40.968237,1.61,0.23,0.41000000000000003,-1.227184630308513,1.401717555507946,-1.299179461953279
2025-02-10 15:42:41.077622,0.68,-0.52,-4.07,-5.888304563915869,-1.53588974175501,0.28034351110158917
2025-02-10 15:42:41.186854,0.68,0.72,-1.61,3.351032163829113,0.7984881327874057,0.5803219762881145
2025-02-10 15:42:41.295878,0.89,1.49,-2.35,2.5852689545166005,-0.5475970528132209,0.055632369907319255
2025-02-10 15:42:41.406398,0.5700000000000001,0.38,0.54,-0.4112432050011639,0.20289452554434081,0.16907877128695067
2025-02-10 15:42:41.516959,0.89,-0.89,0.08,-6.6562494347933745,0.9675669040743564,-0.6152285613280012
2025-02-10 15:42:41.627600,0.09,1.59,-1.23,-4.261875867213654,2.2078415037728267,2.2285672886402597
2025-02-10 15:42:41.736476,1.45,4.01,-2.02,-3.2626748704469,1.5653421728824144,0.2683443724941282
2025-02-10 15:42:41.845676,1.21,1.8900000000000001,-1.27,0.11780972450961724,-1.030835089459151,-1.9842211933610534
2025-02-10 15:42:41.956672,1.3800000000000001,-1.16,1.3900000000000001,0.06326818538479445,-1.906772207803805,-0.8170322560898455
2025-02-10 15:42:42.067426,-0.42,0.41000000000000003,0.76,1.3449943548181302,0.16798794050445423,0.6730425928003133
2025-02-10 15:42:42.178364,0.96,2.45,-0.34,-0.46687557490848314,0.7755806863549802,-0.039269908169872414
2025-02-10 15:42:42.287248,0.62,0.33,-2.11,-2.3289237206299336,0.43196898986859655,-1.5249814339300454
2025-02-10 15:42:42.396427,1.45,0.36,-1.1500000000000001,-0.4756022211684548,0.23343778745424157,0.2945243112740431
2025-02-10 15:42:42.506774,1.34,1.74,-0.76,-1.8598664841564574,-0.5737769915931359,-0.13853550937704992
2025-02-10 15:42:42.617858,-0.93,-0.56,0.36,-2.6845345557237783,-0.581412807070611,0.14180800172453928
2025-02-10 15:42:42.728655,0.84,2.15,2.35,0.9839293658118032,0.8497571795647392,0.34579335805137656
2025-02-10 15:42:42.838479,1.78,0.79,-1.33,-2.5918139392115793,2.2209314731627843,-1.32972272386318
2025-02-10 15:42:42.947567,3.25,0.32,-1.1400000000000001,0.6261368691529657,-2.0354902401383868,0.9206611804270088
2025-02-10 15:42:43.056638,1.29,1.73,3.2600000000000002,-0.008726646259971648,-0.37306412761378793,-0.3119776037939864
2025-02-10 15:42:43.167374,2.11,-2.0300000000000002,0.01,-1.7933258064241737,0.5181446216858165,-1.246819584393449
2025-02-10 15:42:43.278030,0.37,1.34,1.04,-0.003272492347489368,-1.487893187325166,2.8841565889206295
2025-02-10 15:42:43.389518,0.46,2.61,2.29,-1.399535893942953,-1.2260937995260166,-1.9962203319685143
2025-02-10 15:42:43.498512,0.84,-0.29,1.3900000000000001,-0.8868454261696187,2.8797932657906435,1.1104657365813921
2025-02-10 15:42:43.607734,1.41,1.51,-1.6,-0.4374231437810788,1.0101093045917182,0.30870511144649704
2025-02-10 15:42:43.718873,0.63,-1.29,1.18,0.6970408700152354,-1.4169891864628963,-0.4428772976935611
2025-02-10 15:42:43.829682,1.24,1.58,2.1,0.7155849933176751,0.004363323129985824,1.6766069126970529
2025-02-10 15:42:43.940564,1.26,2.14,0.03,-0.4341506514335895,0.5803219762881145,-0.533416252640767
2025-02-10 15:42:44.049488,0.8,-1.46,1.07,0.24652775684419906,0.10253809355466686,-1.3406310316881445
2025-02-10 15:42:44.158432,1.07,-1.62,-1.74,0.13526301702956053,0.2279836335417593,2.498002491916884
2025-02-10 15:42:44.269204,0.29,1.69,2.84,-0.4014257279586958,-1.4300791558528538,2.3976460599272102
2025-02-10 15:42:44.380260,0.09,0.78,1.41,-1.6177020504422441,0.729765793490129,-0.6086835766330224
2025-02-10 15:42:44.491124,-0.52,4.17,0.33,2.957242251347892,1.1301006906663285,-0.39269908169872414
2025-02-10 15:42:44.600791,2.45,-3.52,-1.1300000000000001,-0.9501136115544131,1.4071717094204281,-2.626720524251466
2025-02-10 15:42:44.710050,10.64,1.17,-0.14,4.7069348264722075,-2.3267420590649404,-1.8511398378964858
2025-02-10 15:42:44.819051,-0.38,6.79,1.08,2.8176159111883456,-1.0581058590215622,0.34470252726888007
2025-02-10 15:42:44.929628,4.78,-0.67,-2.27,-3.753548722570305,3.7284596145728863,-5.335253357190166
2025-02-10 15:42:45.040257,1.62,-2.15,-4.57,2.1347558413455645,-0.5901394533305827,0.07090400086226964
2025-02-10 15:42:45.151037,1.47,0.72,-0.21,3.079415298987495,-2.4314618141846003,3.492840165553652
2025-02-10 15:42:45.260077,3.45,3.65,0.85,-0.1090830782496456,-0.003272492347489368,0.5650503453331642
2025-02-10 15:42:45.369449,-0.09,2.46,0.01,0.4286964975211072,0.6163193921104976,-0.8813912722571364
2025-02-10 15:42:45.480436,1.46,-0.97,-1.1300000000000001,-2.234021442552742,1.3799009398580169,-2.4020093830571962
2025-02-10 15:42:45.591190,7.48,-2.64,-0.68,0.016362461737446838,-0.5312345910757741,1.736602605734358
2025-02-10 15:42:45.702180,3.88,4.66,0.04,4.114613711576632,-1.5413438956674923,3.543018381548489
2025-02-10 15:42:45.811103,4.2,4.15,-0.14,-1.2337296150034918,-0.39051742013373125,-3.064143668032545
2025-02-10 15:42:45.920000,7.95,-1.9000000000000001,-0.87,-4.663301595172349,0.23343778745424157,-5.02327575339618
2025-02-10 15:42:46.030347,0.99,-1.59,-3.36,1.720240143996911,-0.9577494270318884,3.07177948351002
2025-02-10 15:42:46.141620,4.01,5.78,0.32,2.432552644967097,-3.3957562259114673,3.4001195490414533
2025-02-10 15:42:46.252432,4.32,1.85,3.34,-2.9616055744778778,1.4584407561977617,-2.3791019366247705
2025-02-10 15:42:46.362191,0.25,-0.8300000000000001,-2.2,-1.6515178046996344,2.8907015736156083,-1.3548118318605984
2025-02-10 15:42:46.471284,0.46,-2.31,-1.08,0.04036073895236887,1.8216874067690814,2.868884957965679
2025-02-10 15:42:46.580506,1.94,4.8,-3.23,-1.0537425358915764,-0.779944009484966,2.476185876266955
2025-02-10 15:42:46.691076,1.52,2.5,1.68,-0.892299580082101,-3.1426834843722897,-3.3772121026090276
2025-02-10 15:42:46.801635,2.15,-1.1400000000000001,0.58,0.7635815477475192,0.5246896063807953,-1.064650843716541
2025-02-10 15:42:46.912520,6.29,1.06,-0.71,-0.31852258848896514,3.19177086958463,1.3886275861179884
2025-02-10 15:42:47.021577,1.31,3.48,-1.32,1.808597437379124,-2.5961772623415653,0.015271630954950384
2025-02-10 15:42:47.130579,-0.02,0.25,1.56,-2.3081979357625007,-0.02181661564992912,-1.670061928002074
2025-02-10 15:42:47.242031,2.5300000000000002,-0.15,-0.44,1.7987799603366559,1.6067937426172796,-0.09272061651219876
2025-02-10 15:42:47.352668,0.68,1.48,-2.0100000000000002,0.8453938564347534,-0.990474350506782,1.3035427850832648
2025-02-10 15:42:47.463631,1.4000000000000001,2.45,0.93,0.44178646691106466,-0.8497571795647392,0.05235987755982989
2025-02-10 15:42:47.572545,-1.79,0.28,-0.52,-1.3799009398580169,0.37306412761378793,-2.0365810709208834
2025-02-10 15:42:47.681520,1.05,-0.8,-0.09,-2.8285242190133104,3.162318438457226,2.194751534382869
2025-02-10 15:42:47.792439,0.96,3.62,-1.67,0.08399397025222712,-0.6544984694978736,1.5064373106276057
2025-02-10 15:42:47.903405,0.45,0.07,2.27,-0.1908953869368798,-0.23343778745424157,-2.0856684561332237
2025-02-10 15:42:48.014540,0.85,-0.25,-0.81,-0.2781618495365963,1.1780972450961724,0.4537856055185257
2025-02-10 15:42:48.123725,0.28,1.8900000000000001,0.08,1.0428342280666119,-0.8333947178272924,0.7624907169650227
2025-02-10 15:42:48.232833,0.1,1.19,0.33,-0.5115996369908379,0.35124751196385884,-0.7341291166201148
2025-02-10 15:42:48.341940,2.23,0.4,-0.23,-0.31852258848896514,0.29670597283903605,0.06981317007977318
2025-02-10 15:42:48.452574,0.93,1.28,0.81,0.34470252726888007,-0.8715737952146683,0.4428772976935611
2025-02-10 15:42:48.563110,0.21,1.01,1.06,-0.5421428989007386,1.0079276430267252,-0.842121364087264
2025-02-10 15:42:48.673928,0.59,-0.43,-1.16,-0.2683443724941282,0.7635815477475192,0.3741549583962844
2025-02-10 15:42:48.782979,0.79,0.73,-0.24,-0.11453723216212788,-0.8246680715673207,1.1104657365813921
2025-02-10 15:42:48.892154,0.55,0.8300000000000001,-0.84,-0.21271200258680892,0.6926775468852495,-0.2923426497090502
2025-02-10 15:42:49.002906,0.19,0.26,0.17,0.4886921905584123,-0.56941366846315,0.06544984694978735
2025-02-10 15:42:49.113776,0.13,0.53,0.21,-1.0242901047641721,0.3665191429188092,0.06654067773228381
2025-02-10 15:42:49.224676,0.61,0.91,-0.23,-0.06217735460229799,0.017453292519943295,-0.06544984694978735
2025-02-10 15:42:49.333689,0.39,0.08,0.4,0.11126473981463851,-0.1636246173744684,-0.11126473981463851
2025-02-10 15:42:49.442753,0.96,0.87,-0.01,-0.17562375598192942,0.3752457891787809,0.5672320068981571
2025-02-10 15:42:49.552232,0.43,1.1400000000000001,-0.23,0.26070855701665296,-0.28907015736156083,-0.3665191429188092
2025-02-10 15:42:49.662776,0.79,-0.02,0.08,35.66580326450413,0.19198621771937624,-0.2792526803190927
2025-02-10 15:42:49.773364,0.41000000000000003,0.71,-0.32,0.3490658503988659,-0.4908738521234052,0.3239767424014474
2025-02-10 15:42:49.883768,0.56,1.06,0.27,-0.6534076387153771,0.36324665057131983,-0.2814343418840856
2025-02-10 15:42:49.992820,0.08,-0.08,-0.5700000000000001,-4.497495316232888,0.11999138607461016,0.04363323129985824
2025-02-10 15:42:50.102174,-0.32,0.62,2.16,-2.4587325837470115,0.2454369260617026,1.177006414313676
2025-02-10 15:42:50.212828,1.58,2.13,0.2,-1.1093749057988957,0.34579335805137656,0.7832165018324554
2025-02-10 15:42:50.323408,-0.42,1.45,-2.43,-0.7166758241001716,-1.2140946609185554,-1.1715522604011936
2025-02-10 15:42:50.434343,0.08,-1.77,1.71,2.5612706773016787,-1.4388058021128254,1.0559241974565694
2025-02-10 15:42:50.543379,-0.5700000000000001,0.9,0.3,-2.203478180642841,0.7973973020049093,-0.56941366846315
2025-02-10 15:42:50.652404,0.12,-0.19,0.7000000000000001,-0.3097959422289935,0.20289452554434081,-0.5792311455056182
2025-02-10 15:42:50.763117,0.33,-0.51,1.32,-0.5879577917655898,0.20289452554434081,-0.10035643198967395
2025-02-10 15:42:50.873635,-1.93,-0.76,1.34,0.3752457891787809,1.265363707695889,0.8290313946973066
2025-02-10 15:42:50.984287,4.05,0.8200000000000001,-0.44,-1.4693490640227262,0.3752457891787809,0.8006697943523987
2025-02-10 15:42:51.094382,0.32,1.72,0.96,3.5986507514558084,-1.7529650674718047,-0.7035858547102141
2025-02-10 15:42:51.203250,1.84,-0.8300000000000001,1.16,-1.6024304194872938,0.8432121948697605,-0.46796640569097964
2025-02-10 15:42:51.312196,2.0100000000000002,1.31,-1.29,0.46796640569097964,-0.030543261909900768,2.24383891959521
2025-02-10 15:42:51.422834,0.15,1.9000000000000001,0.76,0.2999784651865254,-1.5773413114898753,-1.0057459814617324
2025-02-10 15:42:51.533277,-0.85,-1.19,2.3000000000000003,0.9468411192069238,-1.3537210010781018,-1.9874936857085428
2025-02-10 15:42:51.644098,2.61,-1.24,0.23,0.17998707911191522,2.4914575072219054,1.2424562612634633
2025-02-10 15:42:51.753149,-0.53,-0.1,-1.44,-1.6853335589570244,-0.0719948316447661,0.05999569303730508
2025-02-10 15:42:51.862346,1.51,0.8300000000000001,0.6,-1.4824390334126836,-1.3984450631604566,1.2577278922184136
2025-02-10 15:42:51.973020,-3.09,2.29,0.8300000000000001,0.32288591161895097,0.44833145160604343,0.7875798249624412
2025-02-10 15:42:52.083954,4.94,9.15,-2.7800000000000002,24.326617280453465,-6.627887834448466,5.07236313860852
2025-02-10 15:42:52.194898,1.56,1.34,1.1,7.443829259755815,-3.6281031825832124,-1.9896753472735358
2025-02-10 15:42:52.303730,-2.5500000000000003,-1.9100000000000001,2.6,2.0060378090109827,-1.712604328519436,2.1696624263854507
2025-02-10 15:42:52.412688,-1.02,2.62,-0.33,1.610066234964769,1.301361123518272,3.8080902616951278
2025-02-10 15:42:52.523400,1.21,4.32,-1.79,0.38069994309126315,1.3329952162106693,0.5781403147231217
2025-02-10 15:42:52.634604,0.54,0.8200000000000001,0.35000000000000003,-1.6373370045271805,-1.5827954654023577,-3.6161040439757515
2025-02-10 15:42:52.745759,-0.5,-0.4,-0.02,8.773551983618995,-2.1369375029105573,0.8508480103472357
2025-02-10 15:42:52.855049,-1.82,-0.73,-0.16,1.9122263617162873,-0.30870511144649704,2.538363230869253
2025-02-10 15:42:52.964072,-1.56,1.8,-0.3,-0.7635815477475192,-0.2977968036215325,1.5882496193148399
2025-02-10 15:42:53.073231,-2.04,3.0500000000000003,0.5,-0.28688849579656794,2.5874506160815938,1.4246250019403714
2025-02-10 15:42:53.183818,-0.55,2.5500000000000003,-0.6900000000000001,-0.1461713248545251,2.516546615219324,0.17671458676442586
2025-02-10 15:42:53.294343,3.7600000000000002,-1.33,0.13,0.3370667117914049,1.1540989678812503,-0.022907446432425576
2025-02-10 15:42:53.404950,2.35,-1.84,0.5700000000000001,0.5345070834232635,-1.2282754610910094,0.019634954084936207
2025-02-10 15:42:53.513804,0.92,-0.3,1.26,-1.9514962698861598,-0.39924406639370286,0.5126904677733343
2025-02-10 15:42:53.622861,1.12,1.26,0.5700000000000001,-0.779944009484966,0.16580627893946132,0.5421428989007386
2025-02-10 15:42:53.733524,-1.56,2.46,-1.25,-1.3897184169004848,1.734420944169365,-0.25089107997418486
2025-02-10 15:42:53.844557,0.74,2.5100000000000002,-1.06,-0.9468411192069238,1.1682797680537043,-1.6929693744344996
2025-02-10 15:42:53.955687,0.97,-0.88,-0.32,-1.8609573149389538,-0.09926560120717749,-0.8126689329598596
2025-02-10 15:42:54.064515,2.47,0.44,1.37,2.143482487605536,-1.7453292519943295,-0.657770961845363
2025-02-10 15:42:54.174183,1.33,0.06,1.08,-1.3068152774307542,-0.2923426497090502,-0.9490227807719167
2025-02-10 15:42:54.283637,-1.61,1.47,-0.05,-0.4439681284760576,0.495237175253391,0.37960911230876665
2025-02-10 15:42:54.394738,0.81,0.43,-0.4,-0.4985096676008804,1.3384493701231515,0.25416357232167425
2025-02-10 15:42:54.505302,5.04,-0.33,0.31,-0.16471544815696484,0.38724492778624187,0.3523383427463553
2025-02-10 15:42:54.615437,2.66,-0.16,0.4,-0.28907015736156083,-1.1835513990086548,-0.31634092692397225
2025-02-10 15:42:54.724618,0.85,0.79,1.3800000000000001,1.0624691821515482,-0.9490227807719167,0.0545415391248228
2025-02-10 15:42:54.833730,0.0,0.22,0.85,-0.05890486225480862,0.34579335805137656,-0.044724062082354694
2025-02-10 15:42:54.944389,-1.16,0.5700000000000001,-0.58,0.26070855701665296,0.65558930028037,0.7723081940074908
2025-02-10 15:42:55.055626,-0.22,0.07,-0.79,2.223113134727777,0.6119560689805118,1.7660550368617622
2025-02-10 15:42:55.166584,1.86,1.0,0.16,0.6741334235828098,-0.8464846872172498,0.7864889941799448
2025-02-10 15:42:55.275540,1.68,1.41,1.34,0.10253809355466686,-1.385355093770499,-1.8544123302439752
2025-02-10 15:42:55.384726,0.6,0.01,1.59,-0.6403176693254197,-0.4145156973486533,-1.718058482431918
2025-02-10 15:42:55.495291,-0.52,-0.9500000000000001,0.04,-0.2781618495365963,1.451895771502783,-0.1712604328519436
2025-02-10 15:42:55.606207,-1.05,0.18,-1.58,-0.3687008044838021,0.5661411761156606,1.6918785436520032
2025-02-10 15:42:55.716964,-1.32,2.57,-1.51,0.40251655874119224,0.21598449493429828,2.548180707911721
2025-02-10 15:42:55.826052,1.21,2.57,0.89,0.8759371183446542,-0.9468411192069238,0.16471544815696484
2025-02-10 15:42:55.935142,1.42,0.5,1.6,-0.05126904677733343,-0.12217304763960307,-1.734420944169365
2025-02-10 15:42:56.044810,-0.38,-0.91,0.74,0.06981317007977318,1.4748032179352084,-0.9108437033845407
2025-02-10 15:42:56.155899,1.96,0.1,0.34,-1.0068368122442288,2.279836335417593,0.4046982203061852
2025-02-10 15:42:56.266600,1.29,1.25,-1.31,-0.40033489717619936,0.03381575425739013,1.3897184169004848
2025-02-10 15:42:56.376983,2.5500000000000003,1.67,0.22,0.8933904108645975,-0.9490227807719167,0.8639379797371931
2025-02-10 15:42:56.485899,2.58,0.78,2.07,-0.5137812985558308,-0.8497571795647392,-0.6697701004528239
2025-02-10 15:42:56.595216,1.2,-0.41000000000000003,2.2800000000000002,0.01090830782496456,2.1423916568230394,0.2977968036215325
2025-02-10 15:42:56.706284,0.44,-0.29,-0.29,-2.444551783574558,1.6307920198322017,-0.2628902185816459
2025-02-10 15:42:56.817318,2.0300000000000002,0.59,-1.3900000000000001,0.5235987755982988,0.385063266221249,0.6512259771503842
2025-02-10 15:42:56.928303,1.68,1.54,-1.11,1.995129501186018,-1.6526086354821308,0.5497787143782138
2025-02-10 15:42:57.037212,0.85,1.58,1.05,0.6337726846304409,-1.4420782944603148,-0.35452000431134817
2025-02-10 15:42:57.146464,0.09,0.11,1.98,-1.8849555921538759,-0.31306843457648287,-1.1562806294462433
2025-02-10 15:42:57.257412,-0.15,0.54,0.61,0.6730425928003133,1.7158768208669253,-0.24434609527920614
2025-02-10 15:42:57.368202,0.45,0.96,-1.6400000000000001,-0.5923211148955756,2.1183933796081176,1.0810133054539879
2025-02-10 15:42:57.479140,2.12,-0.26,-1.79,0.904298718689562,-0.5225079448158024,1.2370021073509812
2025-02-10 15:42:57.588072,3.9,1.07,-0.17,4.356778145290845,-3.0772336374225024,2.0463985479633515
2025-02-10 15:42:57.697167,0.93,1.17,2.7800000000000002,1.5773413114898753,-1.7747816831217338,0.17998707911191522
2025-02-10 15:42:57.807361,1.19,1.82,1.32,-0.8453938564347534,1.662426112524599,-0.24434609527920614
2025-02-10 15:42:57.918276,1.49,1.28,-0.8200000000000001,-0.6643159465403417,1.0570150282390658,-1.4464416175903005
2025-02-10 15:42:58.028973,2.18,-0.22,-1.9000000000000001,0.1559888018969932,-0.4286964975211072,-1.241365430480967
2025-02-10 15:42:58.138956,0.96,-0.58,0.28,1.2904528156933075,-0.8955720724295904,0.7668540400950086
2025-02-10 15:42:58.248024,0.49,1.42,0.38,-1.4835298641951802,-0.20725784867432664,1.038470904936626
2025-02-10 15:42:58.357041,-0.51,2.14,0.14,-3.202679177409595,0.2552544031041707,0.5006913291658733
2025-02-10 15:42:58.467900,3.2600000000000002,2.12,1.77,11.816969866784108,-0.1734420944169365,6.030112565640408
2025-02-10 15:42:58.578806,0.0,1.84,-0.52,-2.8459775115332535,1.9733128855360889,-0.8737554567796613
2025-02-10 15:42:58.689799,1.07,-0.37,-1.22,-1.0701049976290233,0.9392053037294485,-1.3962634015954636
2025-02-10 15:42:58.798816,1.99,-0.24,-0.16,0.3392483733563978,-1.1159198904938745,0.7046766854927106
2025-02-10 15:42:58.908714,0.58,1.31,0.75,-0.5650503453331642,-0.43524148221608594,0.8890270877346116
2025-02-10 15:42:59.019513,0.48,1.97,0.73,0.1908953869368798,0.13744467859455345,-0.02399827721492203
2025-02-10 15:42:59.130238,0.4,0.23,-0.07,-0.6370451769779303,0.7472190860100724,-0.9675669040743564
2025-02-10 15:42:59.241286,1.54,-1.22,-1.03,-3.2899456400093112,0.07635815477475191,-1.5904312808798329
2025-02-10 15:42:59.350327,0.22,-0.28,-0.78,0.6185010536754906,-0.2530727415391778,0.6283185307179586
2025-02-10 15:42:59.459264,-0.21,0.52,-0.04,-0.05999569303730508,-0.2716168648416175,0.3523383427463553
2025-02-10 15:42:59.569207,-0.32,0.64,0.52,-0.05890486225480862,-0.11235557059713497,-0.10253809355466686
2025-02-10 15:42:59.679958,0.91,0.24,-0.41000000000000003,0.026179938779914945,0.8224864100023278,-0.2912518189265537
2025-02-10 15:42:59.790688,-0.26,-0.11,-0.71,-0.4439681284760576,0.26616271092913524,0.04581489286485115
2025-02-10 15:42:59.900518,0.06,0.01,0.31,0.7461282552275759,-0.5988660995905544,0.3567016658763411
2025-02-10 15:43:00.009569,0.6,0.58,0.44,-0.002181661564992912,0.04363323129985824,0.3937899124812206
2025-02-10 15:43:00.118487,0.22,0.63,-0.1,-0.1559888018969932,0.0719948316447661,-0.3239767424014474
2025-02-10 15:43:00.228767,0.38,-0.2,0.11,-0.20616701789183017,-0.06872233929727672,-0.31634092692397225
2025-02-10 15:43:00.339515,0.29,-0.14,0.14,0.22580197197676638,0.019634954084936207,0.3141592653589793
2025-02-10 15:43:00.450624,0.23,0.55,-0.21,0.14726215563702155,-0.08726646259971647,0.13853550937704992
2025-02-10 15:43:00.559571,0.06,0.16,0.34,-0.007635815477475192,-0.22689280275926285,-0.23234695667174513
2025-02-10 15:43:00.667641,0.25,-0.1,0.19,-0.1559888018969932,0.18871372537188688,-0.04145156973486533
2025-02-10 15:43:00.776267,0.11,0.12,-0.25,-0.022907446432425576,0.06544984694978735,0.055632369907319255
2025-02-10 15:43:00.886746,0.13,0.07,0.11,0.1189005552921137,-0.21271200258680892,-0.015271630954950384
2025-02-10 15:43:00.997135,0.2,0.1,0.23,0.008726646259971648,0.044724062082354694,0.06544984694978735
2025-02-10 15:43:01.107398,0.12,0.19,-0.08,-0.050178215994836975,0.04581489286485115,-0.05235987755982989
2025-02-10 15:43:01.216651,0.25,-0.01,0.07,-0.01090830782496456,-0.06654067773228381,-0.07635815477475191
2025-02-10 15:43:01.325908,0.04,0.01,0.15,0.018544123302439753,0.04363323129985824,0.08399397025222712
2025-02-10 15:43:01.435676,0.13,0.18,-0.04,0.15162547876700738,-0.020725784867432664,0.026179938779914945
2025-02-10 15:43:01.546702,0.21,0.03,0.15,-0.022907446432425576,-0.030543261909900768,-0.06544984694978735
2025-02-10 15:43:01.657719,0.1,0.02,0.05,-0.031634092692397225,0.044724062082354694,0.01090830782496456
2025-02-10 15:43:01.767499,0.18,0.07,-0.02,0.04581489286485115,-0.009817477042468103,0.017453292519943295
2025-02-10 15:43:01.877441,0.18,0.04,0.12,0.02945243112740431,-0.07090400086226964,-0.016362461737446838
2025-02-10 15:43:01.987634,0.15,0.04,0.16,-0.038179077387375956,0.02399827721492203,0.022907446432425576
2025-02-10 15:43:02.098446,0.04,0.07,-0.04,-0.04363323129985824,-0.017453292519943295,-0.05345070834232634
2025-02-10 15:43:02.208896,0.15,-0.08,0.17,0.009817477042468103,-0.18544123302439752,-0.07853981633974483
2025-02-10 15:43:02.317844,0.08,0.12,0.09,-0.016362461737446838,0.1439896632895322,0.06654067773228381
2025-02-10 15:43:02.426941,0.08,0.17,-0.11,-0.061086523819801536,-0.04363323129985824,-0.10690141668465268
2025-02-10 15:43:02.535853,0.11,-0.14,0.24,0.03381575425739013,-0.2399827721492203,-0.05890486225480862
2025-02-10 15:43:02.646863,-2.27,0.41000000000000003,-1.98,7.658722923907617,-1.9722220547535925,5.459608066394762
2025-02-10 15:43:02.758847,-0.12,1.29,0.09,-1.1704614296186973,-0.7417649320975901,-0.6741334235828098
2025-02-10 15:43:02.869303,0.34,0.0,0.7000000000000001,-1.3035427850832648,-0.20725784867432664,-0.8693921336496754
2025-02-10 15:43:02.978424,-1.41,-0.35000000000000003,0.12,1.4300791558528538,1.806415775814131,-0.19416787928436915
2025-02-10 15:43:03.087548,1.44,-0.63,-0.53,1.79441663720667,-1.5162547876700738,1.1595531217937327
2025-02-10 15:43:03.198226,0.65,2.29,0.9500000000000001,2.9561514205653956,-0.7733990247899872,1.3646293089030663
2025-02-10 15:43:03.308901,0.3,0.26,1.1400000000000001,-1.6515178046996344,-0.10035643198967395,-2.454369260617026
2025-02-10 15:43:03.419892,0.29,-1.69,-0.06,-1.4420782944603148,1.538071403320003,-0.6414085001079161
2025-02-10 15:43:03.528873,0.89,0.0,-0.39,1.4104442017679175,0.4657847441259867,1.1584622910112363
2025-02-10 15:43:03.637810,-3.34,0.4,-0.11,0.7166758241001716,-0.1930770485018727,0.32179508083645453
2025-02-10 15:43:03.748452,-0.36,0.03,0.79,0.7843073326149519,-1.6733344203495635,1.3439035240356338
2025-02-10 15:43:03.859145,-1.3,0.41000000000000003,2.07,-1.0711958284115197,0.12980886311707826,-0.8181230868723419
2025-02-10 15:43:03.969756,0.03,-0.8,-0.67,-1.296997800388286,1.7878716525116913,-0.5410520681182421
2025-02-10 15:43:04.078947,2.63,0.44,-0.76,-3.059780344902559,0.16798794050445423,0.4134248665661568
2025-02-10 15:43:04.188099,-0.38,-0.28,-0.85,-3.9695332175046034,0.6806784082777885,-1.6896968820870102
2025-02-10 15:43:04.296307,-0.7000000000000001,-0.71,-0.19,0.7744898555724837,-1.8260507298990674,2.100940087088174
2025-02-10 15:43:04.406647,1.92,1.98,1.79,-0.38069994309126315,-0.006544984694978736,-0.7384924397501007
2025-02-10 15:43:04.517385,0.58,-0.23,0.9,-0.5585053606381855,0.8006697943523987,-1.1562806294462433
2025-02-10 15:43:04.628576,-0.31,-0.92,-0.73,-0.7897614865274342,1.162825614141222,-0.23125612588924865
2025-02-10 15:43:04.738211,0.35000000000000003,-0.2,-0.81,0.7352199474026113,-0.3981532356112064,1.090830782496456
2025-02-10 15:43:04.847796,0.98,0.51,-0.01,0.3370667117914049,-0.5617778529856748,0.26616271092913524
2025-02-10 15:43:04.958767,-0.17,0.9,0.54,-3.390302071998985,-0.8966629032120869,-1.0657416744990376
2025-02-10 15:43:05.069848,1.49,-0.88,1.49,-0.8584838258247108,0.04581489286485115,-0.8377580409572782
2025-02-10 15:43:05.181126,0.89,-1.32,0.55,-1.6809702358270386,0.8235772407848243,0.22143864884678055
2025-02-10 15:43:05.290360,1.71,-0.02,0.0,-1.0013826583317467,0.8083056098298739,0.7384924397501007
2025-02-10 15:43:05.399745,-1.42,-0.23,-2.07,-1.6798794050445423,0.12217304763960307,-0.48323803664593
2025-02-10 15:43:05.510671,0.87,1.98,0.75,4.519311931882817,-2.53618156930426,1.7791450062517198
2025-02-10 15:43:05.621761,-0.7000000000000001,0.74,1.35,-0.5934119456780721,0.21598449493429828,-0.878118779909647
2025-02-10 15:43:05.733317,-1.0,-2.05,0.63,-1.1704614296186973,1.2097313377885697,-0.9730210579868387
2025-02-10 15:43:05.842757,0.76,-1.46,-0.28,0.0719948316447661,0.8475755179997463,1.2370021073509812
2025-02-10 15:43:05.952232,0.02,1.55,-0.6900000000000001,0.4036073895236887,-0.25634523388666713,1.2424562612634633
2025-02-10 15:43:06.062239,1.53,1.16,0.07,1.7027868514769677,-1.4398966328953218,-0.5770494839406252
2025-02-10 15:43:06.173477,1.6300000000000001,-0.84,1.41,1.0962849364089382,-1.0559241974565694,-0.8573929950422144
2025-02-10 15:43:06.284246,-1.24,-0.71,0.86,-0.5421428989007386,1.050470043544087,0.5945027764605685
2025-02-10 15:43:06.393709,-0.6,0.29,0.02,-0.19853120241435498,1.1224648751888533,0.8203047484373349
2025-02-10 15:43:06.502912,0.67,0.53,-0.32,-0.13526301702956053,0.2716168648416175,-0.07526732399225546
2025-02-10 15:43:06.615136,1.61,-0.33,-0.17,0.5497787143782138,-1.014472627721704,-0.5923211148955756
2025-02-10 15:43:06.726032,0.0,-0.73,0.67,0.35997415822383044,-0.5061454830783556,0.00545415391248228
2025-02-10 15:43:06.836776,-1.22,-0.19,0.11,-0.08835729338221293,0.2596177262341565,0.7613998861825263
2025-02-10 15:43:06.946784,0.8300000000000001,0.49,0.9,0.43196898986859655,0.26725354171163174,1.7747816831217338
2025-02-10 15:43:07.055692,0.0,0.66,0.34,-0.12544553998709243,1.6449728200046556,-0.3817907738737596
2025-02-10 15:43:07.164888,-0.36,-0.18,-1.34,-2.953969759000403,-0.47123889803846897,-1.9296796542362307
2025-02-10 15:43:07.275594,2.04,-1.56,0.61,1.435533309765336,0.5115996369908379,1.4868023565426696
2025-02-10 15:43:07.386276,-0.09,0.59,0.2,0.39269908169872414,-0.755945732270044,1.930770485018727
2025-02-10 15:43:07.497211,-0.3,2.5300000000000002,0.36,2.8230700651008283,-0.8737554567796613,0.28034351110158917
2025-02-10 15:43:07.606281,0.61,-1.22,-2.1,-2.038762732485876,1.4464416175903005,-4.333870698858419
2025-02-10 15:43:07.716247,0.8200000000000001,-3.0500000000000003,-0.34,1.31117860056074,-0.08508480103472356,0.42978732830360367
2025-02-10 15:43:07.827182,0.97,0.49,0.49,2.837250865273282,-2.177298241862926,3.1710450847171976
2025-02-10 15:43:07.938057,2.37,4.15,0.63,-0.08508480103472356,-1.0221084431991792,0.5050546522958591
2025-02-10 15:43:08.049051,-1.0,-3.16,-0.31,7.428557628800865,1.5271630954950384,0.044724062082354694
2025-02-10 15:43:08.157928,-17.240000000000002,-2.24,2.7,2.320197074369962,-4.991641660703783,5.8523071480934865
2025-02-10 15:43:08.266924,0.73,-3.3200000000000003,-4.05,-7.643451292952667,0.4363323129985824,-4.548764363010221
2025-02-10 15:43:08.376996,-1.17,1.21,-0.28,-1.2239121379610236,-3.6302848441482056,3.129593514982332
2025-02-10 15:43:08.487895,-2.77,5.51,1.17,3.2615840396644034,-0.3719732968312915,-4.43859045397808
2025-02-10 15:43:08.598837,5.68,-2.75,2.0,-8.126689329598596,2.825251726665821,-4.375322268593285
2025-02-10 15:43:08.708775,0.6,-1.96,-5.07,-3.0772336374225024,1.7431475904293365,1.686424389739521
2025-02-10 15:43:08.817877,2.66,2.62,-1.53,2.5187282767843167,-3.935717463247213,2.3845560905372527
2025-02-10 15:43:08.927384,-0.08,2.33,1.81,0.12544553998709243,-2.6692629247688275,-0.6784967467127956
2025-02-10 15:43:09.038146,-0.05,-0.17,3.8200000000000003,-1.9645862392761173,0.7504915783575618,-1.3722651243805417
2025-02-10 15:43:09.148674,0.89,0.06,-0.47000000000000003,-1.5555246958399462,2.781618495365963,0.35015668118136234
2025-02-10 15:43:09.259659,2.52,1.6600000000000001,-0.89,3.3335788713091694,-1.2173671532660448,1.162825614141222
2025-02-10 15:43:09.368798,0.06,0.36,-0.33,0.2083486794568231,-0.8933904108645975,-0.6948592084502424
2025-02-10 15:43:09.477846,0.0,-0.25,1.03,1.2260937995260166,-0.5017821599483697,0.14508049407202864
2025-02-10 15:43:09.588745,1.57,0.9500000000000001,0.14,-0.2683443724941282,0.9850201965942997,0.026179938779914945
2025-02-10 15:43:09.699012,-0.53,1.35,0.37,0.3392483733563978,-0.631591023065448,0.18216874067690814
2025-02-10 15:43:09.808826,1.98,0.67,0.79,-0.5868669609830933,0.11780972450961724,-0.4985096676008804
2025-02-10 15:43:09.918278,0.4,0.08,-0.3,0.4461497900410505,0.5519603759432067,-0.545415391248228
2025-02-10 15:43:10.027369,0.41000000000000003,0.3,-0.48,-0.3719732968312915,-0.17562375598192942,-0.2378011105842274
2025-02-10 15:43:10.136577,0.45,-0.07,0.62,-0.31852258848896514,-0.3948807432637171,0.09272061651219876
2025-02-10 15:43:10.247212,0.65,0.63,0.1,-0.10690141668465268,0.1461713248545251,0.4036073895236887
2025-02-10 15:43:10.357675,0.62,0.38,-1.22,0.06544984694978735,0.12217304763960307,-0.3196134192714616
2025-02-10 15:43:10.469466,1.77,0.07,0.66,1.2871803233458181,-0.8399397025222711,0.729765793490129
2025-02-10 15:43:10.578519,0.79,1.04,1.56,-0.25089107997418486,0.09599310885968812,0.10799224746714914
2025-02-10 15:43:10.687714,0.27,0.8200000000000001,-0.06,-0.6305001922829515,1.5784321422723717,-0.5203262832508095
2025-02-10 15:43:10.798358,0.7000000000000001,-0.31,-1.47,-0.6490443155853913,-0.13199052468207118,-0.2203478180642841
2025-02-10 15:43:10.909062,0.04,-0.5,-2.44,0.9828385350293068,-1.5053464798451093,1.301361123518272
2025-02-10 15:43:11.020001,-0.9,1.1300000000000001,0.93,3.2332224393194955,-4.319689898685966,0.9272061651219876
2025-02-10 15:43:11.129043,7.78,3.36,8.24,5.382159080837514,-1.4148075248979033,0.48105637508093707
2025-02-10 15:43:11.237955,4.79,2.9,3.08,0.40906154343617096,0.38724492778624187,-4.297873283036036
2025-02-10 15:43:11.348590,1.98,-4.65,-3.44,-5.1312680008633285,4.338234021988406,-3.141592653589793
2025-02-10 15:43:11.459129,1.93,-2.65,-4.49,1.1431906600562858,-1.8325957145940461,2.232930611770245
2025-02-10 15:43:11.569903,2.54,3.0300000000000002,0.44,0.5355979142057599,-2.0322177477908974,4.245513405476206
2025-02-10 15:43:11.679169,0.37,3.85,0.42,-1.4486232791552935,-0.29343348049154666,-1.9536779314511525
2025-02-10 15:43:11.788171,3.64,-0.7000000000000001,-0.24,-3.322670563484205,1.7638733752967692,-4.122249527054107
2025-02-10 15:43:11.897560,2.56,-2.74,-1.45,1.4584407561977617,-2.067124332830784,0.5497787143782138
2025-02-10 15:43:12.008308,-0.36,-0.15,1.1300000000000001,3.181953392542162,0.8868454261696187,1.710422666954443
2025-02-10 15:43:12.118927,0.47000000000000003,0.84,0.74,-2.0136736244884577,1.399535893942953,-1.074468320759009
2025-02-10 15:43:12.229849,2.73,1.26,0.1,-0.8464846872172498,-0.26725354171163174,-1.2435470920459597
2025-02-10 15:43:12.339118,1.08,-0.71,-0.96,-1.9144080232812801,-1.1082840750163994,-0.8552113334772214
2025-02-10 15:43:12.448233,-0.07,0.5700000000000001,-0.28,-2.027854424660912,0.24652775684419906,0.019634954084936207
2025-02-10 15:43:12.559009,0.24,-0.46,-0.01,0.5105088062083414,0.08399397025222712,1.5467980495799745
2025-02-10 15:43:12.669900,0.48,0.06,0.02,0.08835729338221293,0.08835729338221293,-0.24107360293171676
2025-02-10 15:43:12.780836,0.34,0.46,0.23,-0.05999569303730508,-0.07526732399225546,0.35452000431134817
2025-02-10 15:43:12.890161,0.24,0.18,0.37,-0.49960049838337683,-0.18762289458939044,0.07526732399225546
2025-02-10 15:43:12.999237,-0.24,0.42,0.77,-0.18871372537188688,-0.06544984694978735,-0.1090830782496456
2025-02-10 15:43:13.109115,0.39,0.24,-0.14,-0.46469391334349025,-0.2399827721492203,-0.12326387842209953
2025-02-10 15:43:13.219761,0.92,0.54,0.54,0.4690572364734761,-0.3567016658763411,0.032724923474893676
2025-02-10 15:43:13.330526,0.54,1.19,-0.18,-3.1186852071573674,-0.8650288105196896,-2.110757564130642
2025-02-10 15:43:13.439858,1.35,-0.23,1.41,-2.219840642380288,-0.7603090554000298,-1.8642298072864432
2025-02-10 15:43:13.549151,0.0,-1.72,0.93,-0.15707963267948966,0.8224864100023278,-0.4723297288209654
2025-02-10 15:43:13.658266,-0.22,0.18,-0.22,0.26725354171163174,0.22362031041177347,1.3122694313432366
2025-02-10 15:43:13.768997,0.7000000000000001,1.17,-0.11,0.09708393964218458,0.3534291735288517,0.13853550937704992
2025-02-10 15:43:13.879633,2.44,0.44,0.13,-0.28688849579656794,0.5399612373357457,-1.2522737383059315
2025-02-10 15:43:13.990728,0.43,-1.56,1.43,-0.21707532571679475,-0.8912087492996045,-0.31852258848896514
2025-02-10 15:43:14.099589,-0.02,-0.35000000000000003,1.3,0.6839509006252779,0.7254024703601433,1.239183768915974
2025-02-10 15:43:14.208719,-0.6900000000000001,0.67,0.24,-0.6141377305455047,1.2042771838760873,-0.11671889372712078
2025-02-10 15:43:14.320407,-0.23,0.44,-1.59,0.7864889941799448,1.0897399517139594,-1.066832505281534
2025-02-10 15:43:14.431202,1.07,-1.03,-0.39,-0.26070855701665296,-0.9359328113819593,-0.7973973020049093
2025-02-10 15:43:14.542187,0.46,-0.35000000000000003,0.9,0.8366672101747817,-1.0428342280666119,1.1290098598838318
2025-02-10 15:43:14.651155,-0.42,1.32,1.42,-0.5355979142057599,0.3370667117914049,0.8519388411297321
2025-02-10 15:43:14.760086,-1.23,0.71,-0.34,-1.9002272231088262,1.160643952576229,-1.0810133054539879
2025-02-10 15:43:14.870072,0.77,-1.02,-0.23,0.8257589023498172,0.09599310885968812,-0.5661411761156606
2025-02-10 15:43:14.980801,0.03,-0.53,0.16,0.9173886880795195,-0.15162547876700738,0.7570365630525404
2025-02-10 15:43:15.091540,-0.53,1.08,0.56,0.7374016089676042,-0.09272061651219876,0.8213955792198313
2025-02-10 15:43:15.201463,-1.06,1.02,-1.4000000000000001,3.7306412761378795,0.5879577917655898,-0.4756022211684548
2025-02-10 15:43:15.310533,0.26,-0.11,-0.1,0.8912087492996045,-2.021309439965933,-0.8803004414746399
2025-02-10 15:43:15.419463,-1.01,-0.4,1.6400000000000001,-0.4385139745635753,-0.39269908169872414,0.3272492347489368
2025-02-10 15:43:15.530073,-1.6500000000000001,0.91,0.32,-0.4526947747360292,1.275181184738357,0.7210391472301574
2025-02-10 15:43:15.640851,1.58,2.2,-1.03,2.3311053821949264,-0.5323254218582705,-0.48432886742842646
2025-02-10 15:43:15.751429,1.6300000000000001,0.2,-0.17,1.0701049976290233,-1.93295214658372,-1.1464631524037752
2025-02-10 15:43:15.860446,-0.73,-1.83,3.79,-4.5891251019625905,-0.27052603405912107,-0.8268497331323136
2025-02-10 15:43:15.969452,-2.88,-0.9400000000000001,-1.36,0.5585053606381855,1.5195272800175632,1.610066234964769
2025-02-10 15:43:16.080032,-2.59,-0.23,-2.06,0.743946593662583,1.4529866022852793,-1.054833366674073
2025-02-10 15:43:16.190909,-0.56,0.34,0.72,0.4079707126536745,0.3370667117914049,0.16471544815696484
2025-02-10 15:43:16.301706,0.93,-0.27,-0.25,-0.4112432050011639,-0.020725784867432664,0.032724923474893676
2025-02-10 15:43:16.410845,0.32,-0.26,-0.09,-0.18653206380689397,0.27052603405912107,-0.385063266221249
2025-02-10 15:43:16.519839,0.29,0.2,0.09,-0.40906154343617096,0.07853981633974483,-0.19744037163185854
2025-02-10 15:43:16.628715,-0.39,0.9,-1.07,-1.2239121379610236,0.0545415391248228,-0.2901609881440573
2025-02-10 15:43:16.739236,1.18,-0.18,-0.22,-3.130684345764829,-0.7144941625351786,-1.066832505281534
2025-02-10 15:43:16.849824,0.38,0.7000000000000001,0.47000000000000003,-2.1467549799530254,-0.41996985126113556,-0.35779249665883756
2025-02-10 15:43:16.960134,1.41,-0.18,0.74,-0.6152285613280012,-0.26398104936414235,-0.1189005552921137
2025-02-10 15:43:17.068948,-0.02,-0.34,0.97,-0.2585268954516601,0.5366887449882564,1.177006414313676
2025-02-10 15:43:17.177885,0.56,-0.5,0.63,1.1900963837036334,0.025089107997418487,0.5966844380255614
2025-02-10 15:43:17.288344,0.06,0.37,-0.49,-1.2075496762235767,-0.07308566242726255,-0.5410520681182421
2025-02-10 15:43:17.398597,1.19,-0.22,1.1300000000000001,0.3741549583962844,-0.12326387842209953,-0.044724062082354694
2025-02-10 15:43:17.509154,-0.07,0.14,-0.43,1.337358539340655,0.2083486794568231,0.12435470920459599
2025-02-10 15:43:17.618421,0.62,0.45,-0.26,-0.7908523173099306,0.14835298641951802,-0.26070855701665296
2025-02-10 15:43:17.728233,-0.38,0.05,1.67,1.5489797111449675,-0.5235987755982988,1.0068368122442288
2025-02-10 15:43:17.838394,0.2,-0.11,0.18,0.009817477042468103,-0.06981317007977318,0.06544984694978735
2025-02-10 15:43:17.949388,2.29,1.02,0.96,-4.180063558526419,-0.33815754257390135,0.5486878835957173
2025-02-10 15:43:18.060327,7.82,-0.53,4.0200000000000005,4.101523742186674,-1.710422666954443,-0.779944009484966
2025-02-10 15:43:18.171449,0.79,-1.47,-2.04,-9.82184036559809,2.6998061866787286,-2.7510752334560618
2025-02-10 15:43:18.280875,3.84,8.14,6.5,-6.686792696703275,0.23343778745424157,-2.0627610097007985
2025-02-10 15:43:18.390653,-1.8800000000000001,-1.16,0.45,-0.9370236421644557,-1.5926129424448257,0.3741549583962844
2025-02-10 15:43:18.501841,0.11,0.5,-0.28,0.3021601267515183,0.32834006553143325,-0.940296134511945
2025-02-10 15:43:18.612592,2.44,-4.84,-1.3800000000000001,13.351768777756622,0.08617563181722002,5.508695451607102
2025-02-10 15:43:18.723377,0.6900000000000001,4.44,0.53,-4.892376059496605,-0.4265148359561143,-2.482730860961934
2025-02-10 15:43:18.833131,2.44,0.27,3.59,7.472190860100723,0.2378011105842274,3.612831551628262
2025-02-10 15:43:18.943021,7.46,5.17,-3.24,-2.9441522819579347,6.2766403224846075,-3.6760997370130566
2025-02-10 15:43:19.053979,3.95,-0.73,-5.69,-0.03381575425739013,-1.2042771838760873,-7.12857916361434
2025-02-10 15:43:19.164882,6.57,-6.72,6.98,5.901394533305827,-4.6273041793499665,2.0900317792632097
2025-02-10 15:43:19.275556,6.92,1.8900000000000001,1.44,0.5617778529856748,0.7515824091400581,5.991933488253033
2025-02-10 15:43:19.385390,-2.04,8.91,-2.15,1.347176016383123,-0.12326387842209953,-1.4868023565426696
2025-02-10 15:43:19.495513,-0.26,1.23,-0.44,0.07853981633974483,0.47123889803846897,-5.652685114896634
2025-02-10 15:43:19.606662,-2.6,-2.49,-1.8900000000000001,-1.0351984125891367,-1.3559026626430948,-2.48382169174443
2025-02-10 15:43:19.718315,-0.34,-1.0,2.5100000000000002,5.817400563053599,-1.2959069696057897,4.3742314378107885
2025-02-10 15:43:19.829314,-0.71,4.24,-0.2,-0.35015668118136234,0.6206827152404835,-0.02399827721492203
2025-02-10 15:43:19.938296,0.01,1.34,0.07,-0.7548549014875475,1.1759155835311796,-1.5751596499248823
2025-02-10 15:43:20.047489,0.98,-0.29,-0.58,-1.5489797111449675,0.9512044423369096,-0.8224864100023278
2025-02-10 15:43:20.158281,2.74,-0.28,-0.22,0.9097528726020443,0.030543261909900768,0.4919646829059016
2025-02-10 15:43:20.269182,-1.3900000000000001,-0.22,-0.66,0.7406741013150936,-1.2533645690884279,-0.2945243112740431
2025-02-10 15:43:20.380326,0.71,0.0,3.11,3.849541831429993,-0.6370451769779303,2.7292586178061327
2025-02-10 15:43:20.489218,-2.02,3.4,-1.32,-1.5271630954950384,2.0965767639581885,-0.2923426497090502
2025-02-10 15:43:20.598386,-3.68,0.75,-2.18,-0.928296995904484,0.9304786574694769,-2.566724831214161
2025-02-10 15:43:20.708373,0.32,-2.98,0.15,2.7347127717186153,-0.5465062220307244,-0.32070425005395803
2025-02-10 15:43:20.819545,2.38,7.5,6.88,-7.6249071696502275,0.4799655442984406,-3.1928617003671267
2025-02-10 15:43:20.930213,-0.8300000000000001,-8.01,-2.83,3.2495849010569424,4.692754026299753,2.1347558413455645
2025-02-10 15:43:21.040064,2.22,8.040000000000001,-4.91,3.2168599775820486,1.8675022996339325,3.160136776892233
2025-02-10 15:43:21.149011,5.89,-2.16,-6.05,0.9752027195518317,-7.059856824317063,-5.103997231300918
2025-02-10 15:43:21.258197,-13.08,4.92,20.19,15.454890526409788,-6.987861992672297,5.754132377668805
2025-02-10 15:43:21.369018,3.56,0.36,-1.6600000000000001,-1.32972272386318,0.9926560120717749,1.7246034671268968
2025-02-10 15:43:21.479952,-0.02,1.78,-1.3,1.205368014658584,-1.9711312239710959,0.12217304763960307
2025-02-10 15:43:21.591182,0.38,0.25,2.4,0.22907446432425577,-0.6664976081053346,-0.48323803664593
2025-02-10 15:43:21.700046,0.2,0.62,0.02,-0.6894050545377601,1.4660765716752369,0.13962634015954636
2025-02-10 15:43:21.809087,0.14,0.87,-1.12,-0.19416787928436915,-0.26616271092913524,-0.30325095753401476
2025-02-10 15:43:21.919862,0.17,-0.05,1.1,0.6468626540203984,-0.7853981633974483,0.020725784867432664
2025-02-10 15:43:22.031464,1.32,0.78,-0.25,-0.4276056667386107,0.21707532571679475,-0.24107360293171676
2025-02-10 15:43:22.142407,0.06,0.12,0.46,-0.35015668118136234,-0.16689710972195776,-0.44833145160604343
2025-02-10 15:43:22.251226,-0.01,0.49,-0.22,0.7395832705325971,0.4439681284760576,0.4145156973486533
2025-02-10 15:43:22.360155,0.43,0.23,0.21,0.09817477042468103,-0.9086620418195478,-0.6152285613280012
2025-02-10 15:43:22.469570,0.27,-0.05,0.76,-0.2203478180642841,-0.4276056667386107,-0.13199052468207118
2025-02-10 15:43:22.580538,-0.04,0.41000000000000003,0.05,-0.04145156973486533,0.4919646829059016,0.3763366199612773
2025-02-10 15:43:22.691071,0.24,0.6,-0.23,0.00545415391248228,-0.2083486794568231,-0.16798794050445423
2025-02-10 15:43:22.801392,0.12,-0.05,0.52,-0.02181661564992912,-0.08399397025222712,-0.08835729338221293
2025-02-10 15:43:22.910421,0.13,0.27,-0.07,0.014180800172453928,0.19634954084936207,0.17780541754692233
2025-02-10 15:43:23.019411,-0.37,0.4,0.0,-0.07308566242726255,-0.18216874067690814,0.05781403147231216
2025-02-10 15:43:23.130195,3.69,1.22,-2.81,4.28151082129859,-2.631083847381452,1.9994928243160037
2025-02-10 15:43:23.240895,0.24,2.07,-3.08,-14.799301226129417,1.227184630308513,0.36760997370130566
2025-02-10 15:43:23.351782,-3.98,7.41,-3.2800000000000002,4.033892233671894,0.7057675162752071,-0.16689710972195776
2025-02-10 15:43:23.460815,-3.8000000000000003,-5.3100000000000005,0.1,-6.908231345550056,2.5536348618242033,-6.166466413452466
2025-02-10 15:43:23.569790,-8.120000000000001,2.32,1.43,0.5475970528132209,2.58854144686409,3.2048608389745876
2025-02-10 15:43:23.680771,1.98,-6.94,9.85,6.637705311490935,-2.8187067419708423,-0.4625122517784973
2025-02-10 15:43:23.791514,6.48,-5.49,2.25,-6.493715648201403,-0.9719302272043423,-11.919507960338775
2025-02-10 15:43:23.902318,0.33,9.120000000000001,-1.9100000000000001,-2.937607297262956,-2.298380458720033,4.008803125674476
2025-02-10 15:43:24.012410,3.75,-0.9,0.99,7.176575718044184,-5.348343326580124,3.9346266324647168
2025-02-10 15:43:24.122412,1.62,0.25,1.58,1.279544507868343,-1.523890603147549,5.059273169218563
2025-02-10 15:43:24.233951,0.7000000000000001,2.64,0.7000000000000001,1.4584407561977617,3.0510536986425874,2.81325258805836
2025-02-10 15:43:24.345905,0.73,-1.96,-0.98,1.1977321991811087,0.6381360077604268,-0.43196898986859655
2025-02-10 15:43:24.456946,1.85,-8.09,-6.2,-2.9725138823028425,4.165882758353965,-5.253441048502932
2025-02-10 15:43:24.565893,0.97,-0.36,-1.12,3.717551306747922,0.15162547876700738,-0.5235987755982988
2025-02-10 15:43:24.675184,0.12,-1.02,-7.7700000000000005,5.045092369046109,2.022400270748429,0.6686792696703275
2025-02-10 15:43:24.786094,0.49,-1.59,-2.19,-0.7897614865274342,0.5399612373357457,0.28579766501407144
2025-02-10 15:43:24.898092,0.0,0.01,-0.39,-0.559596191420682,-1.2162763224835484,0.5748678223756323
2025-02-10 15:43:25.008858,0.14,-0.04,0.53,-0.753764070705051,-1.4038992170729387,0.27379852640661045
2025-02-10 15:43:25.119232,1.03,1.78,-0.59,0.5705044992456465,0.02181661564992912,0.9479319499894202
2025-02-10 15:43:25.228536,0.47000000000000003,0.06,-0.05,0.2476185876266955,-0.006544984694978736,0.24434609527920614
2025-02-10 15:43:25.339381,0.28,1.33,-1.3900000000000001,2.6179938779914944,0.7123125009701857,0.9522952731194061
2025-02-10 15:43:25.450324,0.5,0.24,-1.07,1.6362461737446838,0.4079707126536745,0.09053895494720585
2025-02-10 15:43:25.561369,0.36,-0.02,-2.22,3.1895892080196373,-0.07963064712224129,-0.04908738521234052
2025-02-10 15:43:25.671671,1.81,-1.32,-1.7,3.275764839836857,0.5639595145506677,-1.3559026626430948
2025-02-10 15:43:25.780637,1.12,1.51,1.23,3.202679177409595,-0.013089969389957472,-0.21598449493429828
2025-02-10 15:43:25.890372,0.93,4.92,2.43,0.007635815477475192,0.25743606466916363,0.23561944901923448
2025-02-10 15:43:26.001135,0.34,2.92,5.07,-0.17016960206944712,-0.1308996938995747,1.920953007976259
2025-02-10 15:43:26.112263,0.45,-1.11,-0.23,3.2615840396644034,0.9817477042468103,-0.8453938564347534
2025-02-10 15:43:26.222880,0.64,-0.64,-1.34,1.7038776822594641,1.038470904936626,1.1584622910112363
2025-02-10 15:43:26.332391,1.93,-0.02,2.21,0.12544553998709243,-2.2689280275926285,-3.1208668687223606
2025-02-10 15:43:26.442186,0.27,0.87,-0.85,1.421352509592882,-0.5770494839406252,0.6446809924554054
2025-02-10 15:43:26.553302,0.51,-0.26,-0.68,0.9970193352017608,-1.8816830998063865,-0.8759371183446542
2025-02-10 15:43:26.664271,-0.1,-0.79,1.52,3.0325095753401476,2.9408797896104453,1.114829059711378
2025-02-10 15:43:26.775402,1.29,-0.6,0.31,2.0518527018758337,1.1726430911836903,0.9413869652944415
2025-02-10 15:43:26.884394,-0.18,-0.26,-1.05,-0.08508480103472356,0.5748678223756323,-1.557706357404939
2025-02-10 15:43:26.994157,0.86,13.09,16.05,-12.90561898771557,1.0897399517139594,2.1903882112528836
2025-02-10 15:43:27.105082,0.51,2.35,-1.48,-2.9703322207378497,0.7417649320975901,0.39706240482870997
2025-02-10 15:43:27.216286,1.95,0.34,-1.1300000000000001,0.13853550937704992,-0.04908738521234052,0.9217520112095053
2025-02-10 15:43:27.327273,2.19,-0.19,0.64,-0.30543261909900765,-2.2907446432425576,-3.7099154912704466
2025-02-10 15:43:27.436583,-0.98,-4.67,0.27,3.0728703142925164,6.672611896530821,-4.674209902997314
2025-02-10 15:43:27.546093,-0.39,-22.05,0.36,4.495313654667895,-0.6272276999354622,4.252058390171185
2025-02-10 15:43:27.657232,1.69,-0.01,0.29,-3.834270200475043,0.5945027764605685,0.619591884457987
2025-02-10 15:43:27.768273,1.55,1.1300000000000001,3.61,-2.5830872929516078,-0.6414085001079161,-0.2454369260617026
2025-02-10 15:43:27.879524,-2.27,-0.4,-2.13,5.553419513689457,0.2650718801466388,-1.7453292519943295
2025-02-10 15:43:27.988987,-0.65,-2.05,7.37,10.653053421860388,-2.201296519077848,-0.8115781021773633
2025-02-10 15:43:28.098272,1.2,1.97,-1.52,1.7289667902568826,1.3962634015954636,0.9479319499894202
2025-02-10 15:43:28.209097,0.91,-4.44,4.4,-0.9970193352017608,0.2378011105842274,-0.06326818538479445
2025-02-10 15:43:28.320363,0.26,0.05,-0.4,1.4606224177627545,1.263182046130896,0.5421428989007386
2025-02-10 15:43:28.431571,-0.06,1.61,-0.5,-0.8803004414746399,0.4657847441259867,0.07963064712224129
2025-02-10 15:43:28.541718,1.17,0.38,-1.1400000000000001,0.4308781590861001,0.9053895494720584,-0.9075712110370514
2025-02-10 15:43:28.651239,0.51,-0.31,-0.4,0.7068583470577035,-0.17016960206944712,0.1189005552921137
2025-02-10 15:43:28.761280,0.71,-0.13,-0.55,0.6174102228929941,0.003272492347489368,-0.4079707126536745
2025-02-10 15:43:28.872538,0.33,0.03,-1.3,2.5339999077392674,2.709623663721197,0.5028729907308662
2025-02-10 15:43:28.983796,0.72,-0.36,-0.5,-0.272707695624114,0.7024950239277177,0.016362461737446838
2025-02-10 15:43:29.094183,0.87,-0.84,-0.44,-1.538071403320003,-1.0559241974565694,0.06654067773228381
2025-02-10 15:43:29.203287,0.59,-1.1,-1.48,0.2945243112740431,-0.385063266221249,-0.07308566242726255
2025-02-10 15:43:29.313277,1.6,-0.87,-0.6,-0.1810779098944117,0.2617993877991494,1.0602875205865552
2025-02-10 15:43:29.424340,0.5,0.7000000000000001,-0.93,1.0253809355466685,0.36979163526629855,1.6187928812247407
2025-02-10 15:43:29.535344,1.52,-1.69,-0.11,-1.4126258633329105,-0.004363323129985824,1.1420998292737894
2025-02-10 15:43:29.646376,0.72,-0.18,-0.29,-2.7347127717186153,0.9370236421644557,-2.0474893787458477
2025-02-10 15:43:29.755817,-0.97,1.52,-2.69,0.5137812985558308,-1.117010721276371,-0.6414085001079161
2025-02-10 15:43:29.866312,0.25,0.11,-0.12,1.4933473412376481,-0.4919646829059016,1.0602875205865552
2025-02-10 15:43:29.976958,0.65,-0.31,-0.79,0.5923211148955756,-0.3294308963139297,0.24870941840919197
2025-02-10 15:43:30.087635,0.91,-0.49,-0.32,0.17235126363444003,0.006544984694978736,-0.0719948316447661
2025-02-10 15:43:30.198634,0.39,0.1,-1.22,-0.19634954084936207,0.6708609312353204,-0.5115996369908379
2025-02-10 15:43:30.307497,0.46,-0.44,-0.84,0.10362892433716332,-0.19634954084936207,0.030543261909900768
2025-02-10 15:43:30.416632,1.74,-0.12,-0.58,0.14289883250703572,-0.717766654882668,0.8344855486097889
2025-02-10 15:43:30.526371,0.42,-0.35000000000000003,-0.43,-0.04145156973486533,0.06326818538479445,-0.04145156973486533
2025-02-10 15:43:30.636978,0.16,-0.25,-0.32,0.013089969389957472,-0.02181661564992912,0.00545415391248228
2025-02-10 15:43:30.747534,0.06,-0.25,-0.15,0.008726646259971648,0.038179077387375956,-0.01090830782496456
2025-02-10 15:43:30.856849,0.11,-0.38,-0.26,-0.009817477042468103,-0.11999138607461016,0.0
2025-02-10 15:43:30.965850,0.11,-0.42,-0.16,0.003272492347489368,-0.025089107997418487,0.31634092692397225
2025-02-10 15:43:31.074853,0.11,-0.28,-0.31,-0.055632369907319255,0.08290313946973066,-0.007635815477475192
2025-02-10 15:43:31.185537,-0.12,-0.13,-0.06,-0.05235987755982989,-0.017453292519943295,0.18435040224190105
2025-02-10 15:43:31.296118,-0.02,-0.27,-0.12,-0.022907446432425576,-0.011999138607461015,-0.019634954084936207
2025-02-10 15:43:31.406823,0.19,-0.24,-0.07,-0.00545415391248228,0.061086523819801536,-0.06981317007977318
2025-02-10 15:43:31.515818,-0.39,-0.26,-0.23,-0.03381575425739013,-0.022907446432425576,0.37742745074377376
2025-02-10 15:43:31.625057,0.26,-0.19,-0.24,0.009817477042468103,-0.09381144729469522,0.009817477042468103
2025-02-10 15:43:31.736004,-0.84,-0.15,-0.55,-0.1461713248545251,0.055632369907319255,0.14944381720201447
2025-02-10 15:43:31.846886,-0.58,-0.16,-0.3,-0.037088246604879506,0.12326387842209953,0.7101308394051928
2025-02-10 15:43:31.958120,-0.16,0.01,-0.34,-0.006544984694978736,-0.0272707695624114,-0.2879793265790644
2025-02-10 15:43:32.067111,0.04,-0.18,-0.04,-0.031634092692397225,0.013089969389957472,-0.04908738521234052
2025-02-10 15:43:32.176066,0.04,-0.1,-0.26,-0.11999138607461016,-0.07853981633974483,-0.20616701789183017
2025-02-10 15:43:32.285179,0.0,-0.1,-0.18,-0.0818123086872342,-0.09926560120717749,-0.03599741582238305
2025-02-10 15:43:32.395828,0.01,-0.04,-0.12,-0.001090830782496456,0.06326818538479445,-0.04690572364734761
2025-02-10 15:43:32.506306,0.02,-0.03,-0.19,0.013089969389957472,0.018544123302439753,-0.038179077387375956
2025-02-10 15:43:32.616566,0.07,-0.18,-0.17,0.0272707695624114,-0.02181661564992912,-0.007635815477475192
2025-02-10 15:43:32.725641,0.11,-0.11,-0.08,0.032724923474893676,-0.037088246604879506,-0.028361600344907856
2025-02-10 15:43:32.834808,0.0,0.0,-0.03,0.001090830782496456,-0.05126904677733343,-0.07853981633974483
2025-02-10 15:43:32.945009,0.1,-0.21,-0.15,0.031634092692397225,0.03490658503988659,0.006544984694978736
2025-02-10 15:43:33.055680,-0.09,-0.11,-0.17,0.14944381720201447,-0.003272492347489368,-0.006544984694978736
2025-02-10 15:43:33.166188,-0.05,-0.08,-0.16,0.02399827721492203,-0.04799655442984406,-0.0272707695624114
2025-02-10 15:43:33.275084,-0.3,-0.26,0.04,0.022907446432425576,0.14180800172453928,-0.008726646259971648
2025-02-10 15:43:33.384015,-0.05,-0.07,-0.09,0.008726646259971648,-0.004363323129985824,0.04036073895236887
2025-02-10 15:43:33.493971,0.21,-0.04,-0.03,-0.009817477042468103,-0.018544123302439753,0.003272492347489368
2025-02-10 15:43:33.604569,0.04,-0.11,-0.1,-0.008726646259971648,0.10144726277217041,-0.017453292519943295
2025-02-10 15:43:33.716483,-0.2,-0.08,-0.09,0.003272492347489368,0.030543261909900768,-0.019634954084936207
2025-02-10 15:43:33.826280,0.2,-0.01,-0.21,0.00545415391248228,-0.11017390903214205,0.008726646259971648
2025-02-10 15:43:33.935292,0.22,0.0,-0.25,-0.015271630954950384,0.0272707695624114,0.06763150851478027
2025-02-10 15:43:34.044477,0.33,-0.08,-0.1,-0.032724923474893676,0.0719948316447661,0.031634092692397225
2025-02-10 15:43:34.154967,-0.01,0.05,-0.2,-0.015271630954950384,0.006544984694978736,-0.05999569303730508
2025-02-10 15:43:34.265582,0.37,-0.15,-0.03,-0.061086523819801536,-0.17889624832941878,0.06544984694978735
2025-02-10 15:43:34.376490,0.13,-0.13,-0.05,0.009817477042468103,-0.032724923474893676,0.002181661564992912
2025-02-10 15:43:34.485526,0.03,-0.03,-0.16,0.12217304763960307,-0.1505346479845109,0.06654067773228381
2025-02-10 15:43:34.594745,1.82,1.0,-0.67,-0.6250460383704692,0.8486663487822428,0.4265148359561143
2025-02-10 15:43:34.705633,-0.24,-0.34,-0.12,-0.9588402578143848,-0.06981317007977318,0.3272492347489368
2025-02-10 15:43:34.816235,0.27,0.09,-0.22,0.3534291735288517,0.009817477042468103,0.0545415391248228
2025-02-10 15:43:34.927100,0.46,0.1,-0.3,0.4188790204786391,-0.14726215563702155,0.33488505022641196
2025-02-10 15:43:35.035946,0.03,-0.01,0.06,0.13962634015954636,-0.08399397025222712,0.05345070834232634
2025-02-10 15:43:35.144978,-3.16,-1.16,1.11,0.22689280275926285,1.2566370614359172,0.33161255787892263
2025-02-10 15:43:35.254609,-0.45,0.61,0.3,-0.07963064712224129,0.08944812416470939,-0.20943951023931956
2025-02-10 15:43:35.365581,-0.29,1.55,-0.51,0.09599310885968812,0.01090830782496456,-0.3916082509162277
2025-02-10 15:43:35.476619,0.18,0.11,0.0,-0.07308566242726255,0.0545415391248228,0.002181661564992912
2025-02-10 15:43:35.586550,-0.01,-0.42,0.45,0.13526301702956053,0.02399827721492203,0.11235557059713497
2025-02-10 15:43:35.695461,0.0,-0.34,0.34,0.3785182815262702,0.6250460383704692,0.06544984694978735
2025-02-10 15:43:35.804582,-4.41,0.36,0.01,-0.002181661564992912,0.14508049407202864,-1.4180800172453927
2025-02-10 15:43:35.915354,0.71,-0.65,0.03,0.14944381720201447,0.05345070834232634,-0.46687557490848314
2025-02-10 15:43:36.026098,0.06,0.18,0.16,0.22252947962927702,-0.49632800603588745,-0.17998707911191522
2025-02-10 15:43:36.136965,0.34,0.32,-0.08,0.011999138607461015,-0.5683228376806536,1.7453292519943295
2025-02-10 15:43:36.245990,-0.25,-0.05,-0.02,0.28361600344907856,-0.24216443371421323,0.09926560120717749
2025-02-10 15:43:36.354999,-0.03,-0.04,0.0,0.08944812416470939,-0.1832595714594046,0.11780972450961724
2025-02-10 15:43:36.465086,0.05,0.07,0.05,0.037088246604879506,-0.5148721293383273,0.3043417883165112
2025-02-10 15:43:36.575701,0.67,-0.19,-0.2,-0.07963064712224129,-0.24107360293171676,0.3327033886614191
2025-02-10 15:43:36.686251,0.17,-0.01,0.18,-0.21271200258680892,1.3940817400304708,-0.5137812985558308
2025-02-10 15:43:36.795498,1.1,-0.67,0.08,0.07635815477475191,0.7941248096574199,-0.2476185876266955
2025-02-10 15:43:36.904490,-0.08,-0.24,-0.01,-0.4723297288209654,0.24870941840919197,0.10799224746714914
2025-02-10 15:43:37.013644,-0.12,0.78,-0.26,-0.3948807432637171,-0.18544123302439752,0.24870941840919197
2025-02-10 15:43:37.124311,0.15,-0.04,0.1,-0.4461497900410505,-0.18653206380689397,0.06435901616729091
2025-02-10 15:43:37.234558,-0.08,-0.15,-0.12,-0.016362461737446838,0.02181661564992912,0.01090830782496456
2025-02-10 15:43:37.345340,-0.12,-0.28,-0.04,0.1090830782496456,-0.09708393964218458,-0.01090830782496456
2025-02-10 15:43:37.454376,0.08,-0.33,-0.09,0.044724062082354694,-0.04145156973486533,0.02181661564992912
2025-02-10 15:43:37.564402,0.0,-0.28,0.05,0.08290313946973066,0.07635815477475191,-0.17562375598192942
2025-02-10 15:43:37.674069,0.37,-0.33,-0.19,0.12762720155208535,0.16035212502697901,-0.2083486794568231
2025-02-10 15:43:37.784980,-0.86,0.1,-0.6,0.09272061651219876,-0.13526301702956053,-0.03490658503988659
2025-02-10 15:43:37.895767,0.17,-0.66,0.02,0.017453292519943295,0.002181661564992912,0.004363323129985824
2025-02-10 15:43:38.004607,-0.03,-0.22,-0.15,-0.12980886311707826,-0.05345070834232634,0.08835729338221293
2025-02-10 15:43:38.113709,0.11,-0.25,0.22,-0.18762289458939044,-0.3523383427463553,0.11999138607461016
2025-02-10 15:43:38.222852,0.28,-0.29,0.08,-0.19634954084936207,0.03381575425739013,-0.05235987755982989
2025-02-10 15:43:38.333027,-0.19,-0.2,0.06,0.12980886311707826,-0.2792526803190927,0.1308996938995747
2025-02-10 15:43:38.443928,-0.31,0.35000000000000003,-0.16,-0.6152285613280012,0.6239552075879728,-0.3327033886614191
2025-02-10 15:43:38.554605,0.06,-0.31,-0.2,0.08617563181722002,-0.06872233929727672,0.002181661564992912
2025-02-10 15:43:38.663406,0.01,-0.1,0.19,-0.020725784867432664,-0.18216874067690814,0.11562806294462433
2025-02-10 15:43:38.772434,-0.04,-0.18,-0.01,0.015271630954950384,-0.04363323129985824,0.01090830782496456
2025-02-10 15:43:38.882994,0.07,-0.19,0.18,-0.001090830782496456,0.030543261909900768,-0.009817477042468103
2025-02-10 15:43:38.993719,0.23,-0.18,0.15,-0.00545415391248228,0.0272707695624114,-0.003272492347489368
2025-02-10 15:43:39.104463,-0.14,-0.11,-0.04,-0.014180800172453928,-0.02181661564992912,-0.00545415391248228
2025-02-10 15:43:39.213283,-0.33,-0.2,-0.06,-0.01090830782496456,-0.03599741582238305,-0.00545415391248228
2025-02-10 15:43:39.322252,0.03,-0.14,0.01,-0.009817477042468103,-0.08944812416470939,0.025089107997418487
2025-02-10 15:43:39.431776,-0.15,-0.34,-0.11,-0.017453292519943295,-0.10253809355466686,0.025089107997418487
2025-02-10 15:43:39.542531,0.0,0.0,0.13,-0.03490658503988659,-0.07963064712224129,0.014180800172453928
2025-02-10 15:43:39.652983,0.07,-0.23,-0.08,-0.04363323129985824,-0.032724923474893676,0.017453292519943295
2025-02-10 15:43:39.763276,0.03,-0.06,-0.03,-0.009817477042468103,0.008726646259971648,-0.01090830782496456
2025-02-10 15:43:39.872246,0.03,-0.41000000000000003,-0.02,-0.003272492347489368,-0.013089969389957472,0.002181661564992912
2025-02-10 15:43:39.981350,0.04,-0.2,-0.03,0.03381575425739013,0.0,-0.015271630954950384
2025-02-10 15:43:40.091270,0.1,-0.04,-0.03,0.014180800172453928,-0.002181661564992912,-0.03599741582238305
2025-02-10 15:43:40.202031,0.06,-0.05,-0.1,-0.006544984694978736,0.04581489286485115,-0.020725784867432664
2025-02-10 15:43:40.312641,-0.14,-0.14,0.05,0.007635815477475192,-0.014180800172453928,-0.011999138607461015
2025-02-10 15:43:40.422227,0.05,-0.22,0.03,0.002181661564992912,-0.01090830782496456,0.038179077387375956
2025-02-10 15:43:40.531251,0.19,-0.13,-0.03,0.038179077387375956,0.003272492347489368,0.01090830782496456
2025-02-10 15:43:40.642076,-2.14,-0.87,-0.36,0.026179938779914945,0.018544123302439753,0.04581489286485115
2025-02-10 15:43:40.752803,-0.48,-0.22,-0.08,-0.013089969389957472,0.006544984694978736,-0.020725784867432664
2025-02-10 15:43:40.863479,0.09,-0.29,0.03,-0.011999138607461015,-0.002181661564992912,-0.001090830782496456
2025-02-10 15:43:40.972861,-0.1,-0.23,-0.17,0.016362461737446838,0.022907446432425576,-0.022907446432425576
2025-02-10 15:43:41.083391,-0.74,-0.51,0.12,-0.003272492347489368,0.009817477042468103,0.01090830782496456
2025-02-10 15:43:41.192952,0.22,-0.32,0.58,-0.025089107997418487,-0.13853550937704992,0.018544123302439753
2025-02-10 15:43:41.304584,-0.44,-0.45,-0.41000000000000003,0.04581489286485115,-0.02181661564992912,0.018544123302439753
2025-02-10 15:43:41.416937,-0.29,0.09,-0.11,0.050178215994836975,-0.08508480103472356,0.055632369907319255
2025-02-10 15:43:41.526352,-0.01,0.05,0.04,0.01090830782496456,-0.05890486225480862,0.013089969389957472
2025-02-10 15:43:41.635988,0.02,-0.28,0.04,-0.008726646259971648,-0.21925698728178766,0.050178215994836975
2025-02-10 15:43:41.745646,-0.21,-0.15,-0.13,0.004363323129985824,0.06217735460229799,-0.015271630954950384
2025-02-10 15:43:41.856985,0.14,-0.16,0.3,0.07090400086226964,0.11562806294462433,0.017453292519943295
2025-02-10 15:43:41.968202,0.1,-0.19,0.23,0.03381575425739013,-0.038179077387375956,0.0272707695624114
2025-02-10 15:43:42.079084,-0.16,-0.14,0.16,0.013089969389957472,-0.015271630954950384,0.07308566242726255
2025-02-10 15:43:42.188140,0.12,-0.15,-0.02,-0.016362461737446838,0.08399397025222712,-0.030543261909900768
2025-02-10 15:43:42.297726,-0.03,-0.11,0.13,-0.05345070834232634,-0.044724062082354694,-0.031634092692397225
2025-02-10 15:43:42.408627,0.14,-0.01,0.14,-0.04581489286485115,-0.09599310885968812,-0.09053895494720585
2025-02-10 15:43:42.519684,0.29,-0.13,0.12,-0.003272492347489368,-0.04363323129985824,-0.02399827721492203
2025-02-10 15:43:42.630531,-0.17,-0.23,-0.23,0.006544984694978736,0.10362892433716332,0.007635815477475192
2025-02-10 15:43:42.740101,-0.15,-0.29,-0.08,-0.038179077387375956,0.20180369476184434,-0.011999138607461015
2025-02-10 15:43:42.849254,0.07,-0.2,0.24,-0.009817477042468103,-0.04799655442984406,0.028361600344907856
2025-02-10 15:43:42.960608,0.19,0.09,-0.05,0.0719948316447661,-0.12326387842209953,-0.002181661564992912
2025-02-10 15:43:43.071826,-0.28,-0.41000000000000003,0.09,0.018544123302439753,0.1439896632895322,0.07853981633974483
2025-02-10 15:43:43.183236,-1.26,0.25,0.03,0.038179077387375956,-0.17780541754692233,0.11017390903214205
2025-02-10 15:43:43.292641,-1.35,-0.5700000000000001,-0.68,0.11999138607461016,-0.17562375598192942,0.19525871006686563
2025-02-10 15:43:43.401917,-0.23,-0.31,0.41000000000000003,0.0545415391248228,0.1636246173744684,0.30870511144649704
2025-02-10 15:43:43.513018,0.0,0.12,0.26,-0.022907446432425576,0.11344640137963143,0.0545415391248228
2025-02-10 15:43:43.623737,1.6400000000000001,-1.09,0.56,-0.2781618495365963,-0.004363323129985824,-0.43196898986859655
2025-02-10 15:43:43.734607,0.15,-0.19,-0.26,0.21598449493429828,-0.15707963267948966,0.20398535632683726
2025-02-10 15:43:43.843513,0.0,0.02,0.53,0.04690572364734761,0.015271630954950384,0.15162547876700738
2025-02-10 15:43:43.952482,0.21,0.09,0.07,-0.2977968036215325,0.0719948316447661,-0.31852258848896514
2025-02-10 15:43:44.062829,-0.03,-0.2,-0.03,-0.14289883250703572,0.0272707695624114,0.004363323129985824
2025-02-10 15:43:44.173309,0.15,-0.41000000000000003,0.1,-0.038179077387375956,0.028361600344907856,-0.044724062082354694
2025-02-10 15:43:44.283739,-0.3,-0.44,-0.41000000000000003,0.05999569303730508,0.019634954084936207,-0.08617563181722002
2025-02-10 15:43:44.394170,0.21,-0.28,0.08,-0.032724923474893676,0.039269908169872414,-0.055632369907319255
2025-02-10 15:43:44.503752,0.06,-0.3,0.1,0.03490658503988659,0.03490658503988659,-0.09926560120717749
2025-02-10 15:43:44.613317,-0.08,-0.39,-0.28,0.019634954084936207,0.006544984694978736,-0.04254240051736178
2025-02-10 15:43:44.724330,-1.06,0.17,-0.01,0.09053895494720585,0.04799655442984406,0.09599310885968812
2025-02-10 15:43:44.835251,-0.37,-0.07,-0.09,0.014180800172453928,-0.06326818538479445,0.09490227807719166
2025-02-10 15:43:44.946134,-0.37,-0.37,-0.34,-0.09053895494720585,-0.013089969389957472,0.038179077387375956
2025-02-10 15:43:45.055678,0.61,-0.21,0.21,0.026179938779914945,0.050178215994836975,0.09053895494720585
2025-02-10 15:43:45.164934,0.12,0.44,0.12,0.07308566242726255,0.006544984694978736,0.006544984694978736
2025-02-10 15:43:45.277006,-0.48,0.13,0.34,-0.05781403147231216,-0.11235557059713497,-0.04254240051736178
2025-02-10 15:43:45.387843,0.11,-1.02,-0.5,-0.01090830782496456,0.07744898555724837,0.025089107997418487
2025-02-10 15:43:45.498797,-0.1,0.21,0.13,0.00545415391248228,0.007635815477475192,0.07853981633974483
2025-02-10 15:43:45.608279,-0.11,-0.03,0.05,-0.19416787928436915,-0.038179077387375956,-0.0272707695624114
2025-02-10 15:43:45.717938,-0.24,-0.72,-0.48,0.13853550937704992,0.06872233929727672,-0.039269908169872414
2025-02-10 15:43:45.828664,0.0,0.16,0.3,-0.05781403147231216,0.04254240051736178,-0.009817477042468103
2025-02-10 15:43:45.939652,-0.64,-1.1400000000000001,-0.1,-0.07635815477475191,-0.04254240051736178,-0.18435040224190105
2025-02-10 15:43:46.050773,-0.09,-0.01,0.07,0.12980886311707826,0.038179077387375956,-0.06654067773228381
2025-02-10 15:43:46.160239,-0.14,-0.11,-0.1,0.10362892433716332,-0.037088246604879506,-0.08726646259971647
2025-02-10 15:43:46.269516,0.03,-0.17,0.05,0.06217735460229799,-0.007635815477475192,-0.08399397025222712
2025-02-10 15:43:46.380055,-0.15,0.0,0.03,0.055632369907319255,0.04254240051736178,-0.10581058590215622
2025-02-10 15:43:46.491405,0.7000000000000001,1.82,0.71,0.09490227807719166,0.24434609527920614,-0.35452000431134817
2025-02-10 15:43:46.602579,0.8200000000000001,0.37,-0.21,0.2694352032766246,0.806123948264881,-0.4243331743911214
2025-02-10 15:43:46.711902,-2.45,-0.28,-0.73,0.2399827721492203,0.12762720155208535,-0.39051742013373125
2025-02-10 15:43:46.821275,0.9500000000000001,0.02,-0.89,0.8530296719122286,1.0188359508516898,-0.7090400086226963
2025-02-10 15:43:46.931955,1.17,-0.11,-0.34,0.6359543461954338,0.4985096676008804,-0.17235126363444003
2025-02-10 15:43:47.043002,-0.22,-0.55,0.59,0.29561514205653955,0.07526732399225546,0.31852258848896514
2025-02-10 15:43:47.154082,-0.58,-0.36,-0.25,0.16689710972195776,-0.15817046346198613,0.13744467859455345
2025-02-10 15:43:47.263619,-0.6900000000000001,-0.5,-0.51,0.3861540970037454,-0.3119776037939864,-0.022907446432425576
2025-02-10 15:43:47.373014,0.28,-0.38,0.21,0.4537856055185257,-0.32506757318394386,-0.13199052468207118
2025-02-10 15:43:47.482431,0.92,-0.27,0.41000000000000003,0.46142142099600086,-0.2519819107566813,0.05781403147231216
2025-02-10 15:43:47.593379,-1.03,-1.41,-0.9,1.241365430480967,-0.19962203319685143,-0.19416787928436915
2025-02-10 15:43:47.704521,-0.86,0.4,0.12,1.2762720155208536,-0.6501351463678877,-0.5410520681182421
2025-02-10 15:43:47.815262,0.03,0.61,-1.18,0.39269908169872414,-0.8584838258247108,-0.1734420944169365
2025-02-10 15:43:47.924205,-0.75,-1.21,0.44,0.6152285613280012,-1.1464631524037752,-0.038179077387375956
2025-02-10 15:43:48.033633,-0.66,-0.4,1.76,0.4494222823885399,-0.9217520112095053,-0.12980886311707826
2025-02-10 15:43:48.144446,-0.32,-0.05,1.84,-0.3196134192714616,-0.767944870877505,-0.01090830782496456
2025-02-10 15:43:48.255426,1.67,-0.78,0.96,0.10362892433716332,-0.21271200258680892,-0.015271630954950384
2025-02-10 15:43:48.366815,0.47000000000000003,-0.55,0.5700000000000001,0.37088246604879505,-0.21707532571679475,0.31852258848896514
2025-02-10 15:43:48.475860,-1.78,0.17,-0.41000000000000003,-0.04690572364734761,-0.4166973589136462,-0.31525009614147576
2025-02-10 15:43:48.585473,2.48,-0.43,2.87,0.11453723216212788,0.2476185876266955,-0.5301437602932776
2025-02-10 15:43:48.696518,1.03,0.44,-0.18,0.04036073895236887,1.153008137098754,-0.559596191420682
2025-02-10 15:43:48.807507,-0.51,-0.9500000000000001,0.43,0.02399827721492203,0.4439681284760576,-0.2476185876266955
2025-02-10 15:43:48.918769,1.74,-0.9400000000000001,-0.26,-0.4341506514335895,0.5301437602932776,0.11235557059713497
2025-02-10 15:43:49.028212,0.73,0.65,1.71,-0.619591884457987,0.9533861039019025,0.6512259771503842
2025-02-10 15:43:49.137891,0.06,-0.65,0.43,-0.9708393964218458,0.5966844380255614,0.7155849933176751
2025-02-10 15:43:49.249691,-0.28,-1.51,0.45,-0.8748462875621577,0.4494222823885399,0.7428557628800865
2025-02-10 15:43:49.360746,-0.51,-0.47000000000000003,-0.52,-0.3239767424014474,0.7046766854927106,0.4112432050011639
2025-02-10 15:43:49.472017,-0.45,1.5,-0.7000000000000001,-0.4985096676008804,0.7003133623627247,0.30652344988150415
2025-02-10 15:43:49.581642,-0.33,-0.32,0.96,-0.42542400517361784,0.019634954084936207,0.36324665057131983
2025-02-10 15:43:49.690930,0.0,-0.75,-0.62,-0.36979163526629855,0.061086523819801536,0.1712604328519436
2025-02-10 15:43:49.802150,-7.38,5.54,3.97,-0.017453292519943295,-0.037088246604879506,0.5715953300281429
2025-02-10 15:43:49.913224,-0.34,-0.17,-1.12,-0.14180800172453928,-0.3817907738737596,0.31852258848896514
2025-02-10 15:43:50.024210,0.39,-0.32,0.03,-0.2977968036215325,-0.2912518189265537,0.05672320068981571
2025-02-10 15:43:50.133620,-0.07,0.18,0.15,-0.2083486794568231,-0.23671027980173096,-0.04690572364734761
2025-02-10 15:43:50.242995,0.02,-0.85,0.46,-0.2814343418840856,-0.3294308963139297,-0.03381575425739013
2025-02-10 15:43:50.353524,0.07,-0.35000000000000003,-0.1,-0.3861540970037454,-0.8312130562622995,0.2552544031041707
2025-02-10 15:43:50.464532,0.0,-1.8800000000000001,-0.76,-0.3174317577064687,-0.3010692959690218,0.2945243112740431
2025-02-10 15:43:50.575636,0.14,0.01,0.36,-0.014180800172453928,-0.044724062082354694,0.13744467859455345
2025-02-10 15:43:50.685138,-0.36,-0.49,-0.02,-0.11671889372712078,0.08072147790473774,0.21489366415180183
2025-02-10 15:43:50.794729,0.22,0.01,0.04,-0.16580627893946132,0.007635815477475192,0.20943951023931956
2025-02-10 15:43:50.904279,0.16,0.13,-0.02,-0.34797501961636945,-0.136353847812057,-0.025089107997418487
2025-02-10 15:43:51.015469,0.24,0.1,0.28,-0.12326387842209953,-0.346884188833873,-0.10581058590215622
2025-02-10 15:43:51.127014,-0.02,-0.23,0.23,-0.13853550937704992,-0.09926560120717749,-0.11453723216212788
2025-02-10 15:43:51.236769,0.03,-0.27,0.11,0.0272707695624114,-0.037088246604879506,-0.16035212502697901
2025-02-10 15:43:51.346343,-0.31,-0.26,0.16,0.07744898555724837,-0.07963064712224129,-0.06872233929727672
2025-02-10 15:43:51.455738,0.5700000000000001,-0.21,-0.15,0.06981317007977318,0.011999138607461015,-0.07963064712224129
2025-02-10 15:43:51.566934,0.4,-0.21,0.33,0.07635815477475191,0.1308996938995747,-0.14944381720201447
2025-02-10 15:43:51.678154,-0.04,-0.32,-0.23,0.09490227807719166,0.1505346479845109,-0.15489797111449674
2025-02-10 15:43:51.788938,-0.5,-0.4,-0.02,0.10471975511965978,0.001090830782496456,0.007635815477475192
2025-02-10 15:43:51.898588,3.45,-1.52,-0.47000000000000003,-0.11562806294462433,0.42542400517361784,0.2007128639793479
2025-02-10 15:43:52.008135,-0.06,-0.14,0.17,-0.026179938779914945,-0.038179077387375956,0.12980886311707826
2025-02-10 15:43:52.118317,-0.1,-0.11,-0.06,-0.12435470920459599,-0.03381575425739013,0.11344640137963143
2025-02-10 15:43:52.229333,0.08,-0.06,0.11,-0.05345070834232634,-0.04363323129985824,0.11235557059713497
2025-02-10 15:43:52.340242,0.02,0.0,-0.1,-0.030543261909900768,0.02945243112740431,0.09708393964218458
2025-02-10 15:43:52.449713,0.27,-0.16,0.29,-0.04036073895236887,0.003272492347489368,0.050178215994836975
2025-02-10 15:43:52.559383,0.34,0.08,-0.01,0.0545415391248228,0.04363323129985824,0.002181661564992912
2025-02-10 15:43:52.669817,0.08,-0.23,0.0,-0.04254240051736178,0.04254240051736178,0.03490658503988659
2025-02-10 15:43:52.781067,0.07,-0.19,-0.1,-0.05126904677733343,-0.10362892433716332,0.006544984694978736
2025-02-10 15:43:52.892426,0.52,0.04,0.33,-0.001090830782496456,-0.07853981633974483,0.03599741582238305
2025-02-10 15:43:53.001962,0.0,-0.17,-0.06,-0.004363323129985824,-0.006544984694978736,-0.0272707695624114
2025-02-10 15:43:53.111835,0.03,0.07,0.16,0.03599741582238305,0.006544984694978736,-0.025089107997418487
2025-02-10 15:43:53.222630,0.01,-0.11,-0.02,0.007635815477475192,-0.006544984694978736,-0.017453292519943295
2025-02-10 15:43:53.333467,0.06,-0.06,0.16,0.04254240051736178,-0.03490658503988659,-0.02945243112740431
2025-02-10 15:43:53.444230,-0.16,-0.18,-0.18,0.07526732399225546,-0.011999138607461015,-0.02945243112740431
2025-02-10 15:43:53.553645,-0.05,-0.01,0.2,-0.017453292519943295,0.008726646259971648,0.017453292519943295
2025-02-10 15:43:53.662757,0.0,-0.04,0.05,0.022907446432425576,0.00545415391248228,-0.003272492347489368
2025-02-10 15:43:53.772334,0.03,-0.17,0.05,-0.05781403147231216,0.011999138607461015,0.016362461737446838
2025-02-10 15:43:53.883181,0.02,-0.08,0.3,0.05781403147231216,-0.006544984694978736,-0.02399827721492203
2025-02-10 15:43:53.993897,-0.06,-0.05,0.01,-0.030543261909900768,0.019634954084936207,0.018544123302439753
2025-02-10 15:43:54.104448,0.05,-0.1,0.11,0.039269908169872414,-0.008726646259971648,-0.02181661564992912
2025-02-10 15:43:54.213671,0.0,-0.08,-0.07,0.001090830782496456,0.038179077387375956,0.007635815477475192
2025-02-10 15:43:54.323123,0.56,0.21,0.64,-0.07635815477475191,0.07635815477475191,0.020725784867432664
2025-02-10 15:43:54.434206,-0.16,-0.15,-0.07,-0.05235987755982989,-0.0545415391248228,0.01090830782496456
2025-02-10 15:43:54.545127,-0.15,-0.11,0.11,0.016362461737446838,0.01090830782496456,0.014180800172453928
2025-02-10 15:43:54.656273,0.16,-0.34,-0.1,0.020725784867432664,0.03599741582238305,0.031634092692397225
2025-02-10 15:43:54.765267,0.07,-0.19,-0.02,-0.013089969389957472,0.003272492347489368,-0.00545415391248228
2025-02-10 15:43:54.874980,0.01,-0.11,0.05,-0.037088246604879506,-0.004363323129985824,-0.014180800172453928
2025-02-10 15:43:54.986387,0.13,-0.1,0.12,0.008726646259971648,0.003272492347489368,0.014180800172453928
2025-02-10 15:43:55.097317,-0.02,0.02,-0.07,-0.0272707695624114,0.001090830782496456,0.015271630954950384
2025-02-10 15:43:55.208415,0.04,-0.08,0.02,-0.008726646259971648,-0.019634954084936207,0.0
2025-02-10 15:43:55.317678,0.02,-0.12,0.04,-0.031634092692397225,0.032724923474893676,0.04254240051736178
2025-02-10 15:43:55.427235,0.01,-0.14,-0.11,-0.044724062082354694,0.013089969389957472,0.037088246604879506
2025-02-10 15:43:55.537808,0.06,-0.04,0.2,-0.06981317007977318,-0.013089969389957472,-0.03599741582238305
2025-02-10 15:43:55.648809,-0.08,-0.13,-0.02,0.003272492347489368,-0.009817477042468103,0.017453292519943295
2025-02-10 15:43:55.760098,0.02,-0.15,0.07,0.020725784867432664,-0.007635815477475192,0.011999138607461015
2025-02-10 15:43:55.870224,-0.01,-0.12,-0.04,0.016362461737446838,0.001090830782496456,-0.001090830782496456
2025-02-10 15:43:55.981491,0.02,-0.07,0.11,0.002181661564992912,-0.007635815477475192,0.002181661564992912
2025-02-10 15:43:56.092579,0.0,-0.08,0.01,-0.002181661564992912,-0.0272707695624114,-0.014180800172453928
2025-02-10 15:43:56.203702,0.03,-0.12,0.05,0.02181661564992912,0.002181661564992912,-0.014180800172453928
2025-02-10 15:43:56.314667,-0.01,-0.11,0.0,0.018544123302439753,0.00545415391248228,-0.006544984694978736
2025-02-10 15:43:56.424483,0.03,-0.14,0.14,-0.003272492347489368,-0.00545415391248228,-0.004363323129985824
2025-02-10 15:43:56.535533,-0.07,-0.1,0.0,0.014180800172453928,-0.002181661564992912,-0.008726646259971648
2025-02-10 15:43:56.646208,0.02,-0.1,0.14,0.011999138607461015,0.002181661564992912,-0.004363323129985824
2025-02-10 15:43:56.756654,-0.15,-0.12,-0.09,-0.002181661564992912,0.006544984694978736,0.0
2025-02-10 15:43:56.867723,0.26,0.0,0.42,-0.022907446432425576,0.003272492347489368,0.02399827721492203
2025-02-10 15:43:56.977570,-0.43,-0.21,-0.31,0.020725784867432664,-0.02181661564992912,0.016362461737446838
2025-02-10 15:43:57.086565,0.55,-0.06,0.53,0.019634954084936207,0.06544984694978735,-0.020725784867432664
2025-02-10 15:43:57.197206,-0.25,-0.09,0.17,-0.05235987755982989,-0.022907446432425576,-0.003272492347489368
2025-02-10 15:43:57.307862,0.02,-0.17,-0.12,0.001090830782496456,-0.007635815477475192,0.008726646259971648
2025-02-10 15:43:57.419145,-0.12,-0.21,-0.05,0.002181661564992912,-0.032724923474893676,-0.006544984694978736
2025-02-10 15:43:57.528041,0.04,-0.2,-0.13,0.018544123302439753,-0.009817477042468103,0.00545415391248228
2025-02-10 15:43:57.637056,0.11,-0.19,0.04,-0.03490658503988659,-0.003272492347489368,0.015271630954950384
2025-02-10 15:43:57.746884,-0.04,-0.16,-0.11,0.05235987755982989,0.006544984694978736,-0.018544123302439753
2025-02-10 15:43:57.857678,-0.39,-0.33,-0.5,-0.001090830782496456,-0.03490658503988659,-0.014180800172453928
2025-02-10 15:43:57.968325,-0.12,-0.14,-0.08,-0.017453292519943295,-0.00545415391248228,-0.007635815477475192
2025-02-10 15:43:58.078848,0.01,-0.23,0.06,0.05890486225480862,0.03490658503988659,0.00545415391248228
2025-02-10 15:43:58.187786,0.5,-0.09,0.32,0.1189005552921137,0.06872233929727672,-0.11344640137963143
2025-02-10 15:43:58.296957,0.0,-0.02,0.03,0.04799655442984406,-0.06544984694978735,-0.0818123086872342
2025-02-10 15:43:58.407424,0.11,-0.16,0.04,0.0818123086872342,-0.02399827721492203,-0.06981317007977318
2025-02-10 15:43:58.518048,0.15,-0.16,-0.04,0.003272492347489368,-0.014180800172453928,-0.05672320068981571
2025-02-10 15:43:58.628703,-0.02,-0.09,0.02,-0.00545415391248228,-0.04799655442984406,-0.09817477042468103
2025-02-10 15:43:58.737960,0.03,-0.1,-0.08,-0.0818123086872342,-0.07417649320975901,-0.14508049407202864
2025-02-10 15:43:58.846978,-0.13,-0.13,0.19,-0.05126904677733343,0.018544123302439753,-0.20725784867432664
2025-02-10 15:43:58.956407,-0.05,-0.08,0.0,0.04145156973486533,-0.003272492347489368,-0.11017390903214205
2025-02-10 15:43:59.066762,-0.12,-0.11,-0.06,-0.032724923474893676,-0.01090830782496456,-0.05890486225480862
2025-02-10 15:43:59.177117,0.0,-0.07,0.23,-0.055632369907319255,-0.07635815477475191,0.02945243112740431
2025-02-10 15:43:59.287078,0.16,-0.21,0.22,-0.09053895494720585,-0.24216443371421323,0.08399397025222712
2025-02-10 15:43:59.395999,0.17,-0.27,0.18,0.06763150851478027,0.06326818538479445,-0.04581489286485115
2025-02-10 15:43:59.504956,-0.04,-0.23,0.11,0.09708393964218458,0.055632369907319255,-0.031634092692397225
2025-02-10 15:43:59.615000,-0.04,-0.12,0.05,0.10253809355466686,0.05126904677733343,0.011999138607461015
2025-02-10 15:43:59.725370,-0.15,-0.11,0.09,0.19744037163185854,0.05126904677733343,0.11562806294462433
2025-02-10 15:43:59.836023,-0.34,-0.2,-0.08,0.13962634015954636,0.014180800172453928,0.2301652951067522
2025-02-10 15:43:59.944881,0.19,-0.1,0.09,0.0272707695624114,0.09490227807719166,0.32070425005395803
2025-02-10 15:44:00.053817,0.12,-0.2,0.15,0.015271630954950384,0.09272061651219876,0.17889624832941878
2025-02-10 15:44:00.162844,-0.24,-0.07,-0.11,0.10144726277217041,0.06763150851478027,0.12544553998709243
2025-02-10 15:44:00.273080,-0.01,-0.23,-0.21,-0.19853120241435498,-0.044724062082354694,0.2814343418840856
2025-02-10 15:44:00.383330,0.08,-0.13,0.05,-0.09490227807719166,0.1090830782496456,0.15817046346198613
2025-02-10 15:44:00.493846,0.03,-0.1,-0.05,-0.07417649320975901,0.11017390903214205,0.025089107997418487
2025-02-10 15:44:00.603039,-0.08,-0.16,0.11,-0.13853550937704992,-0.0272707695624114,-0.09272061651219876
2025-02-10 15:44:00.712312,-0.08,-0.19,0.12,-0.13526301702956053,0.004363323129985824,-0.08399397025222712
2025-02-10 15:44:00.823040,-0.2,0.0,0.05,-0.08072147790473774,-0.004363323129985824,0.028361600344907856
2025-02-10 15:44:00.933843,-0.72,0.7000000000000001,0.17,0.1734420944169365,0.29561514205653955,0.20616701789183017
2025-02-10 15:44:01.044826,-1.58,1.73,-0.11,0.23343778745424157,-0.10362892433716332,0.8879362569521152
2025-02-10 15:44:01.154145,-7.890000000000001,-0.51,3.93,-0.2596177262341565,-0.13744467859455345,-0.8693921336496754
2025-02-10 15:44:01.263526,0.34,1.33,0.12,-1.0319259202416473,-0.48323803664593,-2.398736890709707
2025-02-10 15:44:01.374489,10.02,-2.0100000000000002,-5.04,-0.2792526803190927,0.020725784867432664,-0.5399612373357457
2025-02-10 15:44:01.485359,10.49,1.84,-8.33,0.2912518189265537,-0.5388704065532492,1.2697270308258748
2025-02-10 15:44:01.596455,0.17,0.9500000000000001,0.93,0.4788747135159442,0.22580197197676638,0.48105637508093707
2025-02-10 15:44:01.705495,0.12,-0.12,0.21,0.19853120241435498,0.34797501961636945,0.29343348049154666
2025-02-10 15:44:01.814515,-0.3,-0.19,-0.09,0.1189005552921137,0.18762289458939044,0.4886921905584123
2025-02-10 15:44:01.923562,-0.37,0.21,-0.23,0.18216874067690814,0.23889194136672387,0.6850417314077744
2025-02-10 15:44:02.034709,-1.01,1.37,-0.23,0.18216874067690814,0.33052172709642613,1.05265170510908
2025-02-10 15:44:02.145890,-6.390000000000001,8.290000000000001,-1.08,0.8857545953871222,0.5301437602932776,3.05323536020758
2025-02-10 15:44:02.255718,-11.26,1.12,1.99,0.5661411761156606,0.6686792696703275,0.65558930028037
2025-02-10 15:44:02.364821,-6.26,0.37,1.51,-0.755945732270044,-1.4104442017679175,-2.3300145514124297
2025-02-10 15:44:02.474139,-1.0,2.23,-0.93,-1.5489797111449675,-1.8849555921538759,-4.025165587411922
2025-02-10 15:44:02.584888,9.31,6.36,-4.19,-1.0461067204141012,-0.19962203319685143,-4.531311070490278
2025-02-10 15:44:02.695634,13.290000000000001,-0.28,-2.66,0.5803219762881145,-0.21162117180431245,2.294017135590047
2025-02-10 15:44:02.806495,5.4,4.88,3.7,0.8126689329598596,-0.20616701789183017,2.1642082724729685
2025-02-10 15:44:02.915410,-0.05,-0.7000000000000001,-1.27,0.48651052899341934,0.4537856055185257,0.7897614865274342
2025-02-10 15:44:03.024563,0.21,-0.23,0.07,0.19634954084936207,0.28361600344907856,0.4036073895236887
2025-02-10 15:44:03.135094,-0.6,0.0,0.14,0.25743606466916363,0.2792526803190927,0.5966844380255614
2025-02-10 15:44:03.246171,-0.39,0.77,-0.56,0.4636030825609938,0.4166973589136462,1.0275625971116615
2025-02-10 15:44:03.356855,-3.67,6.26,-0.47000000000000003,0.6043202535030366,0.6948592084502424,1.6515178046996344
2025-02-10 15:44:03.465781,-2.16,4.76,-0.9500000000000001,1.684242728174528,2.2809271662000894,1.9013180538913228
2025-02-10 15:44:03.574886,-7.2,0.75,5.49,0.4036073895236887,0.28034351110158917,-1.8653206380689398
2025-02-10 15:44:03.685408,-2.48,1.87,3.35,-0.8726646259971648,-0.2814343418840856,-4.213879312783809
2025-02-10 15:44:03.796232,7.13,5.38,-0.58,-1.3144510929082294,-0.4439681284760576,-4.750568057772066
2025-02-10 15:44:03.906854,15.82,-1.16,-4.58,-0.028361600344907856,0.7079491778402,-0.27598018797160334
2025-02-10 15:44:04.016814,4.67,1.48,-3.25,0.878118779909647,-0.006544984694978736,1.6853335589570244
2025-02-10 15:44:04.125895,0.66,0.27,-0.11,0.6305001922829515,0.4559672670835186,1.0068368122442288
2025-02-10 15:44:04.234983,-0.01,-0.19,-0.3,0.37088246604879505,0.49414634447089456,0.6915867161027531
2025-02-10 15:44:04.345504,0.67,-0.2,0.28,0.33597588100890846,0.3119776037939864,0.6185010536754906
2025-02-10 15:44:04.456509,-0.11,0.55,-0.34,0.35561083509384467,0.4526947747360292,0.48323803664593
2025-02-10 15:44:04.567601,-3.23,5.48,0.21,0.7024950239277177,0.9872018581592926,1.3417218624706408
2025-02-10 15:44:04.677353,-1.4000000000000001,5.58,-1.7,1.9634954084936207,1.9318613158012234,2.3572853209748414
2025-02-10 15:44:04.786468,-8.51,-0.04,5.48,0.5683228376806536,1.2719086923908676,-1.8958638999788404
2025-02-10 15:44:04.897062,-0.78,2.64,3.35,-0.6926775468852495,-0.2694352032766246,-4.096069588274192
2025-02-10 15:44:05.007782,4.22,5.0200000000000005,-0.55,-1.451895771502783,-0.6086835766330224,-4.667664918302335
2025-02-10 15:44:05.118785,15.91,-1.48,-3.84,-0.011999138607461015,1.337358539340655,-1.4889840181076623
2025-02-10 15:44:05.227699,3.15,1.56,-3.19,0.4461497900410505,0.43196898986859655,1.7900533140766843
2025-02-10 15:44:05.336633,1.72,1.29,0.33,0.5225079448158024,0.5486878835957173,0.8912087492996045
2025-02-10 15:44:05.446951,-0.36,-0.06,-0.27,0.24870941840919197,0.8126689329598596,0.3719732968312915
2025-02-10 15:44:05.557902,-0.18,-0.22,0.0,0.09381144729469522,0.3719732968312915,0.46469391334349025
2025-02-10 15:44:05.668297,-0.24,0.46,-0.14,0.19962203319685143,0.3839724354387525,0.8464846872172498
2025-02-10 15:44:05.778321,-2.48,4.5600000000000005,-1.33,0.4014257279586958,0.8508480103472357,0.8017606251348951
2025-02-10 15:44:05.888436,-0.92,1.78,-0.98,1.0515608743265836,1.3177235852557188,1.4268066635053644
2025-02-10 15:44:05.997946,-5.38,0.43,3.87,-0.09599310885968812,0.09381144729469522,-0.40251655874119224
2025-02-10 15:44:06.109106,-1.57,1.3,0.64,-1.0242901047641721,-0.32506757318394386,-1.6918785436520032
2025-02-10 15:44:06.219976,2.08,0.33,-0.73,-0.9326603190344699,-0.21380283336930536,-1.8696839611989255
2025-02-10 15:44:06.330936,2.66,-0.02,-1.2,-0.7461282552275759,-0.34797501961636945,-1.3526301702956054
2025-02-10 15:44:06.440324,2.99,-0.9400000000000001,-1.54,-0.002181661564992912,0.5475970528132209,-0.6686792696703275
2025-02-10 15:44:06.549775,2.99,0.68,-0.97,0.46142142099600086,1.2293662918735058,-0.18871372537188688
2025-02-10 15:44:06.660789,-1.6400000000000001,-1.32,-0.51,0.779944009484966,0.4079707126536745,0.7395832705325971
2025-02-10 15:44:06.771777,0.77,0.05,-0.84,0.27052603405912107,0.38288160465625604,0.5552328682906961
2025-02-10 15:44:06.882655,-0.18,-0.19,-0.55,0.025089107997418487,0.33488505022641196,0.3272492347489368
2025-02-10 15:44:06.992072,0.0,-0.19,-0.1,-0.04690572364734761,0.06872233929727672,0.4603305902135044
2025-02-10 15:44:07.101217,-0.42,0.44,-0.14,-0.16471544815696484,0.2596177262341565,0.7068583470577035
2025-02-10 15:44:07.211536,-2.85,4.76,1.07,-0.07090400086226964,0.2301652951067522,1.3679018012505557
2025-02-10 15:44:07.323032,-9.03,5.8,0.53,0.07308566242726255,-0.13744467859455345,2.664899601638842
2025-02-10 15:44:07.434483,-9.83,0.99,0.14,-1.36353847812057,-0.9992009967667537,-0.5170537909033202
2025-02-10 15:44:07.544486,-4.63,1.81,-5.13,-2.072578486743266,-3.0674161603800343,-2.4467334451395506
2025-02-10 15:44:07.655064,2.36,1.92,-6.59,-1.4028083862904424,-2.0104011321409683,-3.7262779530078936
2025-02-10 15:44:07.766144,18.080000000000002,-3.33,-8.59,0.050178215994836975,-1.7038776822594641,-0.6883142237552637
2025-02-10 15:44:07.877194,2.93,1.26,-4.5,1.1999138607461015,-0.0272707695624114,1.944951285191181
2025-02-10 15:44:07.988014,0.27,-0.16,-0.68,0.5519603759432067,0.16035212502697901,0.8672104720846825
2025-02-10 15:44:08.097128,-0.05,-0.33,0.08,0.3141592653589793,0.4494222823885399,0.5737769915931359
2025-02-10 15:44:08.206181,-0.08,0.01,0.22,0.28034351110158917,0.3294308963139297,0.7657632093125121
2025-02-10 15:44:08.316841,0.18,0.74,0.23,0.3523383427463553,0.7592182246175333,0.9217520112095053
2025-02-10 15:44:08.427501,-5.12,7.3,-1.6600000000000001,0.2617993877991494,0.5672320068981571,2.342013690019891
2025-02-10 15:44:08.538250,-13.040000000000001,3.47,2.37,0.33488505022641196,0.9599310885968813,1.8893189152838616
2025-02-10 15:44:08.648051,-6.8500000000000005,-0.36,0.72,-0.8312130562622995,-1.0221084431991792,-1.6493361431346414
2025-02-10 15:44:08.757162,-1.16,0.98,-2.44,-1.1355548445788106,-1.1966413683986121,-3.7688203535252556
2025-02-10 15:44:08.866986,5.73,4.74,-3.12,-0.892299580082101,-1.4508049407202865,-3.9313541401172274
2025-02-10 15:44:08.977875,13.07,-0.64,-2.05,0.21380283336930536,0.39269908169872414,-0.31634092692397225
2025-02-10 15:44:09.088587,6.78,2.04,4.07,0.5214171140333059,-0.6305001922829515,1.9874936857085428
2025-02-10 15:44:09.198924,3.15,0.58,-0.04,0.6479534848028948,0.9981101659842572,1.0035643198967394
2025-02-10 15:44:09.307867,-0.06,-0.33,-0.5,0.003272492347489368,0.7777623479199731,0.4145156973486533
2025-02-10 15:44:09.416861,-0.17,-0.27,-0.08,-0.12217304763960307,0.36760997370130566,0.507236313860852
2025-02-10 15:44:09.527491,-0.43,0.01,0.0,-0.05781403147231216,0.38288160465625604,0.8486663487822428
2025-02-10 15:44:09.641692,-1.95,5.3500000000000005,0.91,-0.07526732399225546,0.4919646829059016,1.3548118318605984
2025-02-10 15:44:09.751761,-2.36,3.99,-4.43,0.3621558197888234,-0.3785182815262702,2.841614188403268
2025-02-10 15:44:09.861588,-10.08,1.59,-0.06,-0.7232208087951503,-0.2083486794568231,-2.354012828627352
2025-02-10 15:44:09.971174,-2.39,2.75,-2.22,-0.8344855486097889,-2.875429942660658,-2.150027472300515
2025-02-10 15:44:10.082388,4.25,1.46,-4.3500000000000005,-0.7603090554000298,-1.313360262125733,-2.8557949885757217
2025-02-10 15:44:10.193426,16.79,-1.06,-3.88,0.017453292519943295,-1.0875582901489667,-0.2999784651865254
2025-02-10 15:44:10.304458,9.42,4.23,-2.5300000000000002,1.1399181677087964,-0.04254240051736178,2.0442168863983583
2025-02-10 15:44:10.414088,0.33,0.03,-0.97,0.6272276999354622,0.4690572364734761,0.8737554567796613
2025-02-10 15:44:10.523763,0.28,-0.39,0.28,0.2825251726665821,0.47778388273344774,0.4537856055185257
2025-02-10 15:44:10.634977,0.29,-0.17,0.51,0.3141592653589793,0.39706240482870997,0.6032294227205401
2025-02-10 15:44:10.745968,0.38,0.49,0.16,0.5225079448158024,0.7744898555724837,0.9937468428542714
2025-02-10 15:44:10.857423,-6.140000000000001,8.65,-0.8,0.8028514559173916,0.16907877128695067,2.9910580056052822
2025-02-10 15:44:10.967024,-10.28,2.84,4.65,0.15926129424448257,1.3973542323779602,-0.1090830782496456
2025-02-10 15:44:11.076195,-5.47,0.8300000000000001,1.31,-1.2140946609185554,-0.681769239060285,-2.260201381332657
2025-02-10 15:44:11.187409,0.09,2.1,-4.92,-1.4551682638502723,-1.6286103582672087,-3.478659365381198
2025-02-10 15:44:11.298825,11.39,2.42,-2.93,-0.7003133623627247,-0.7603090554000298,-3.3193980711367157
2025-02-10 15:44:11.410071,12.56,-0.99,-4.17,0.7035858547102141,0.11235557059713497,1.576250480707379
2025-02-10 15:44:11.519609,3.61,2.42,-1.94,0.9501136115544131,0.06326818538479445,1.2577278922184136
2025-02-10 15:44:11.629352,2.7600000000000002,0.44,0.18,0.6719517620178169,0.22362031041177347,0.9119345341670372
2025-02-10 15:44:11.740467,0.6,-0.25,0.1,0.3337942194439155,0.5988660995905544,0.42215151282612845
2025-02-10 15:44:11.851363,0.03,-0.22,0.36,0.32615840396644036,0.31634092692397225,0.631591023065448
2025-02-10 15:44:11.962620,0.18,0.27,0.11,0.6021385919380436,0.2683443724941282,0.9653852425093635
2025-02-10 15:44:12.072267,-0.88,2.86,0.46,0.6883142237552637,0.6621342849753488,1.1660981064887115
2025-02-10 15:44:12.181628,1.25,7.4,-0.52,1.401717555507946,0.7210391472301574,3.093596099159949
2025-02-10 15:44:12.292948,-10.93,3.08,5.3,-0.5585053606381855,0.8530296719122286,-1.4060808786379317
2025-02-10 15:44:12.404142,-2.23,2.36,-0.73,-2.050761871093337,-0.9817477042468103,-3.639011490408177
2025-02-10 15:44:12.516142,-317.78000000000003,2.67,-6.04,-1.6035212502697902,-2.3572853209748414,-3.46884188833873
2025-02-10 15:44:12.625711,17.79,-3.31,-7.63,0.055632369907319255,-0.5879577917655898,0.08726646259971647
2025-02-10 15:44:12.735380,4.19,-0.63,-1.16,1.2228213071785272,-0.10799224746714914,2.0649426712657912
2025-02-10 15:44:12.846565,0.79,-0.09,-0.46,0.4461497900410505,0.3752457891787809,0.7134033317526822
2025-02-10 15:44:12.957763,0.4,-0.29,0.13,0.21380283336930536,0.5115996369908379,0.43960480534607177
2025-02-10 15:44:13.069003,0.37,0.07,0.12,0.2650718801466388,0.24652775684419906,0.8257589023498172
2025-02-10 15:44:13.178515,-0.92,1.8,0.23,0.24652775684419906,0.5945027764605685,1.2293662918735058
2025-02-10 15:44:13.287930,-6.67,7.78,-1.9100000000000001,0.39269908169872414,-0.3687008044838021,3.208133331322077
2025-02-10 15:44:13.398978,-11.84,2.58,2.2800000000000002,-0.04036073895236887,-0.47778388273344774,1.0319259202416473
2025-02-10 15:44:13.510151,-4.47,1.46,1.42,-1.5653421728824144,-0.9893835197242855,-2.5612706773016787
2025-02-10 15:44:13.621497,2.42,2.68,-3.5500000000000003,-1.631882850614698,-2.0965767639581885,-3.6433748135381627
2025-02-10 15:44:13.730698,14.26,1.1400000000000001,-4.73,-1.114829059711378,-0.7188574856651645,-3.131775176547325
2025-02-10 15:44:13.839985,3.17,5.01,-3.7600000000000002,0.5486878835957173,0.7963064712224128,1.2806353386508393
2025-02-10 15:44:13.950751,2.86,0.46,-1.1500000000000001,0.8868454261696187,-0.0719948316447661,1.2446379228284563
2025-02-10 15:44:14.061830,1.03,-0.14,-0.62,0.4854196982109229,0.15271630954950383,0.5759586531581288
2025-02-10 15:44:14.173197,0.26,-0.15,0.16,0.4908738521234052,0.210530341021816,0.3621558197888234
2025-02-10 15:44:14.283006,0.8200000000000001,-0.13,0.32,0.39706240482870997,0.3621558197888234,0.29670597283903605
2025-02-10 15:44:14.392066,0.23,-0.32,-0.17,0.38069994309126315,0.2825251726665821,0.6261368691529657
2025-02-10 15:44:14.502323,-0.03,0.6,0.01,0.5159629601208237,0.6359543461954338,0.7395832705325971
2025-02-10 15:44:14.613598,-5.0,6.93,1.68,0.9075712110370514,0.061086523819801536,2.748893571891069
2025-02-10 15:44:14.724671,-8.47,4.82,5.83,0.6992225315802283,1.6787885742620456,0.779944009484966
2025-02-10 15:44:14.834574,-6.79,0.9400000000000001,2.5300000000000002,-1.6951510359994926,-0.5006913291658733,-2.443460952792061
2025-02-10 15:44:14.944042,0.05,2.72,-5.53,-2.2067506729903306,-0.6544984694978736,-4.36768645311581
2025-02-10 15:44:15.053711,12.61,2.47,-4.88,-0.5672320068981571,-0.3174317577064687,-3.3793937641740204
2025-02-10 15:44:15.164646,14.35,-0.9,-3.48,0.6403176693254197,0.19198621771937624,1.299179461953279
2025-02-10 15:44:15.275123,3.34,-0.01,-1.92,0.9719302272043423,-0.07635815477475191,1.6493361431346414
2025-02-10 15:44:15.386138,1.01,0.2,-0.55,0.4559672670835186,0.19416787928436915,0.8704829644321719
2025-02-10 15:44:15.495586,0.48,-0.42,-0.39,0.3097959422289935,0.5486878835957173,0.4177881896961426
2025-02-10 15:44:15.605220,-0.02,0.04,0.07,0.2530727415391778,0.37960911230876665,0.6566801310628665
2025-02-10 15:44:15.716373,-0.35000000000000003,1.16,-0.29,0.40033489717619936,0.743946593662583,1.124646536753846
2025-02-10 15:44:15.827563,-2.93,4.93,-0.03,0.5923211148955756,0.9250245035569946,2.151118303083011
2025-02-10 15:44:15.938743,0.41000000000000003,5.5,-3.5700000000000003,0.8813912722571364,0.2650718801466388,2.772891849105991
2025-02-10 15:44:16.048340,-9.13,-0.66,3.0,-0.29343348049154666,-0.33488505022641196,-1.3384493701231515
2025-02-10 15:44:16.158198,-2.8000000000000003,2.19,1.58,-1.2457287536109527,-0.7417649320975901,-4.1298853425315825
2025-02-10 15:44:16.269341,7.17,6.46,-2.13,-1.325359400733194,-1.842413191636514,-4.617486702307498
2025-02-10 15:44:16.380355,18.28,-2.06,-5.5600000000000005,0.13853550937704992,0.6479534848028948,0.5672320068981571
2025-02-10 15:44:16.492480,4.46,1.67,-1.81,1.1071932442339028,0.17016960206944712,1.8249598991165707
2025-02-10 15:44:16.602172,-0.24,0.05,0.0,0.5235987755982988,0.38288160465625604,0.9435686268594344
2025-02-10 15:44:16.711752,0.17,-0.21,-0.19,0.30870511144649704,0.5868669609830933,0.6523168079328807
2025-02-10 15:44:16.822429,-0.54,0.11,0.31,0.4188790204786391,0.4930555136883981,0.6959500392327389
2025-02-10 15:44:16.933610,-0.26,1.29,0.25,0.41015237421866746,0.7144941625351786,1.1071932442339028
2025-02-10 15:44:17.044467,-6.0200000000000005,9.040000000000001,-0.03,0.7690357016600015,0.8083056098298739,2.7499844026735656
2025-02-10 15:44:17.153464,-10.47,2.74,3.71,0.44505895925855404,0.7155849933176751,1.249001245958442
2025-02-10 15:44:17.262412,-5.2,1.3900000000000001,2.22,-1.2893619849108109,-0.284706834231575,-3.2877639784443184
2025-02-10 15:44:17.373070,1.74,3.5500000000000003,-2.75,-1.473712387152712,-1.4082625402029247,-4.377503930158277
2025-02-10 15:44:17.483681,12.44,0.86,-5.59,-0.9446594576419308,-0.6130468997630083,-3.2724923474893677
2025-02-10 15:44:17.594284,12.16,1.72,-1.52,0.6697701004528239,-0.8366672101747817,1.6733344203495635
2025-02-10 15:44:17.703425,-0.29,-0.76,-1.56,0.7886706557449377,0.16580627893946132,1.53588974175501
2025-02-10 15:44:17.812467,-0.12,-0.29,-0.39,0.5028729907308662,0.6108652381980153,1.0875582901489667
2025-02-10 15:44:17.921499,-0.58,-0.33,-0.18,0.3861540970037454,0.6261368691529657,0.9053895494720584
2025-02-10 15:44:18.032374,0.08,0.23,-0.36,0.5214171140333059,0.557414529855689,0.990474350506782
2025-02-10 15:44:18.142838,-1.35,2.31,0.48,0.4439681284760576,0.25089107997418486,1.5631605113174214
2025-02-10 15:44:18.253429,-5.32,9.05,-2.92,1.189005552921137,0.5268712679457882,3.4033920413889427
2025-02-10 15:44:18.362213,-11.75,2.07,4.2700000000000005,0.04581489286485115,0.8770279491271507,-1.0591966898040588
2025-02-10 15:44:18.470521,-4.67,1.33,0.96,-1.1399181677087964,-0.6501351463678877,-3.861540970037454
2025-02-10 15:44:18.580147,5.16,5.36,-3.45,-1.421352509592882,-2.3431045208023873,-4.840016181936775
2025-02-10 15:44:18.690129,21.48,-2.18,-6.12,-0.1341721862470641,0.22907446432425577,-1.296997800388286
2025-02-10 15:44:18.799743,3.0500000000000003,1.76,-4.61,0.9937468428542714,0.011999138607461015,2.287472150895068
2025-02-10 15:44:18.908892,1.61,0.29,-0.38,0.557414529855689,0.39051742013373125,1.1846422297911512
2025-02-10 15:44:19.017211,0.22,-0.25,-0.63,0.32288591161895097,0.7112216701876893,0.47451139038595835
2025-02-10 15:44:19.125570,0.12,-0.14,0.12,0.20398535632683726,0.49632800603588745,0.6403176693254197
2025-02-10 15:44:19.235526,-0.22,1.61,-0.11,0.43960480534607177,0.5530512067257032,0.9697485656393493
2025-02-10 15:44:19.345907,-6.890000000000001,7.5200000000000005,-0.44,0.5661411761156606,0.6872233929727672,2.2078415037728267
2025-02-10 15:44:19.456172,-12.290000000000001,1.11,3.58,0.48978302134090873,1.2533645690884279,-0.08290313946973066
2025-02-10 15:44:19.564468,-3.5500000000000003,1.75,1.52,-0.8486663487822428,-0.19525871006686563,-2.743439417978587
2025-02-10 15:44:19.672667,-0.06,2.42,-1.28,-1.069014166846527,-1.8489581763314928,-3.130684345764829
2025-02-10 15:44:19.780986,6.62,0.9500000000000001,-3.93,-0.6043202535030366,-1.387536755335492,-2.3769202750597778
2025-02-10 15:44:19.891632,10.49,-0.63,-2.62,0.4701480672559725,-0.25089107997418486,0.21162117180431245
2025-02-10 15:44:20.001783,1.47,1.92,-2.63,0.8890270877346116,0.5541420375081997,1.5009831567151235
2025-02-10 15:44:20.111697,2.58,0.97,1.12,0.4494222823885399,0.05890486225480862,1.102829921103917
2025-02-10 15:44:20.219741,0.05,-0.11,0.3,0.27707101875409984,0.595593607243065,0.5115996369908379
2025-02-10 15:44:20.327870,0.05,-0.17,0.0,0.18216874067690814,0.385063266221249,0.46687557490848314
2025-02-10 15:44:20.436255,-0.02,-0.41000000000000003,-0.07,0.17889624832941878,0.25634523388666713,0.605411084285533
2025-02-10 15:44:20.546531,0.0,0.48,-0.1,0.2181661564992912,0.6588617926278594,0.7581273938350369
2025-02-10 15:44:20.656175,-3.27,4.17,0.19,0.032724923474893676,0.210530341021816,1.7158768208669253
2025-02-10 15:44:20.766603,-10.41,3.36,2.33,0.5050546522958591,0.9086620418195478,1.4791665410651942
2025-02-10 15:44:20.874612,-7.71,1.78,1.84,-0.8192139176548384,-0.8453938564347534,-0.6719517620178169
2025-02-10 15:44:20.982919,-3.06,2.13,-2.75,-1.612247896529762,-1.9820395317960604,-2.282017996982586
2025-02-10 15:44:21.093809,1.6300000000000001,1.31,-5.53,-1.1061024134514064,-1.7660550368617622,-3.1514101306322613
2025-02-10 15:44:21.205221,12.65,0.08,-3.36,-0.18980455615438332,-0.009817477042468103,-1.894773069196344
2025-02-10 15:44:21.316182,-2.0100000000000002,3.94,3.74,0.5606870222031783,-0.7494007475750653,1.758419221384287
2025-02-10 15:44:21.425641,4.04,0.14,-1.97,0.7723081940074908,-0.13526301702956053,1.4246250019403714
2025-02-10 15:44:21.534862,0.68,0.0,0.14,0.4308781590861001,0.43524148221608594,0.6424993308904126
2025-02-10 15:44:21.643931,0.12,-0.15,0.44,0.3043417883165112,0.657770961845363,0.48105637508093707
2025-02-10 15:44:21.754889,-0.26,-0.05,0.22,0.28361600344907856,0.42978732830360367,0.6708609312353204
2025-02-10 15:44:21.865447,-0.45,0.99,0.07,0.31634092692397225,0.6915867161027531,1.0351984125891367
2025-02-10 15:44:21.976340,-4.74,6.04,0.1,0.38942658935123475,0.2825251726665821,2.387828582884742
2025-02-10 15:44:22.085332,-8.77,1.77,1.52,0.6163193921104976,1.2926344772583003,0.18653206380689397
2025-02-10 15:44:22.194715,-5.42,1.32,3.2800000000000002,-0.06872233929727672,0.20507618710933373,-2.1696624263854507
2025-02-10 15:44:22.305423,0.19,3.2,1.85,-0.7352199474026113,-0.27052603405912107,-3.689189706403014
2025-02-10 15:44:22.416262,7.0200000000000005,2.84,0.85,-0.7832165018324554,-0.4821472058634335,-3.352122994611609
2025-02-10 15:44:22.527097,11.57,-0.87,-2.5500000000000003,-0.3337942194439155,1.203186353093591,-0.459239759431008
2025-02-10 15:44:22.635910,3.5500000000000003,1.6600000000000001,-0.9500000000000001,0.44505895925855404,0.04036073895236887,1.50207398749762
2025-02-10 15:44:22.744850,1.32,0.29,0.12,0.5083271446433485,0.22689280275926285,0.9239336727744982
2025-02-10 15:44:22.855020,0.45,-0.22,0.06,0.28907015736156083,0.5672320068981571,0.4276056667386107
2025-02-10 15:44:22.965559,-0.33,-0.16,-0.09,0.22143864884678055,0.32506757318394386,0.4657847441259867
2025-02-10 15:44:23.076025,-0.06,-0.27,-0.1,0.24434609527920614,0.2683443724941282,0.5759586531581288
2025-02-10 15:44:23.185790,-0.37,0.11,-0.15,0.22252947962927702,0.20725784867432664,0.5661411761156606
2025-02-10 15:44:23.294980,-1.42,1.05,-1.25,0.1930770485018727,0.5879577917655898,0.7264933011426397
2025-02-10 15:44:23.403977,-2.43,3.31,0.61,0.4657847441259867,0.044724062082354694,1.5369805725375065
2025-02-10 15:44:23.514771,-7.57,2.63,3.16,0.40033489717619936,1.0559241974565694,0.10253809355466686
2025-02-10 15:44:23.625671,-5.0200000000000005,2.09,2.0300000000000002,-0.7875798249624412,-0.45160394395353276,-1.4540774330677757
2025-02-10 15:44:23.736509,-1.61,1.5,-0.59,-0.9315694882519734,0.26398104936414235,-2.981240528562814
2025-02-10 15:44:23.845728,3.1,1.47,-1.3,-0.5410520681182421,0.2650718801466388,-3.2190416391470418
2025-02-10 15:44:23.954898,8.52,-0.19,-1.1400000000000001,-0.2454369260617026,1.10501158266891,-2.333287043759919
2025-02-10 15:44:24.065615,8.08,-0.11,-0.89,0.16907877128695067,-0.28579766501407144,0.8857545953871222
2025-02-10 15:44:24.176336,-1.02,-0.93,-2.5300000000000002,0.4537856055185257,-0.11671889372712078,1.8860464229363723
2025-02-10 15:44:24.287280,1.31,-0.12,0.2,0.3981532356112064,0.4385139745635753,0.8497571795647392
2025-02-10 15:44:24.396184,0.0,-0.35000000000000003,-0.54,0.15926129424448257,0.7581273938350369,0.22689280275926285
2025-02-10 15:44:24.505192,-0.4,-0.26,-0.27,0.06981317007977318,0.4559672670835186,0.27707101875409984
2025-02-10 15:44:24.615457,0.16,-0.2,-0.06,0.05890486225480862,0.23452861823673804,0.45487643630102215
2025-02-10 15:44:24.726385,-0.63,-0.04,-0.6900000000000001,-0.08072147790473774,0.5006913291658733,0.4657847441259867
2025-02-10 15:44:24.837373,-1.97,0.03,-4.87,-0.07308566242726255,1.028653427894158,0.4363323129985824
2025-02-10 15:44:24.946841,-0.45,-1.72,-1.35,0.693768377667746,3.878994262557397,-1.0624691821515482
2025-02-10 15:44:25.056865,-0.76,-1.06,-2.73,0.8093964406123704,4.535674393620264,-2.059488517353309
2025-02-10 15:44:25.165793,2.63,-0.59,-1.32,1.141008998491293,2.0016744858809967,-0.4036073895236887
2025-02-10 15:44:25.276557,-2.99,0.3,0.43,1.0515608743265836,2.0474893787458477,-0.22362031041177347
2025-02-10 15:44:25.386967,-2.92,0.64,1.95,0.6588617926278594,1.8609573149389538,-0.8573929950422144
2025-02-10 15:44:25.497610,-3.69,2.13,2.11,0.17235126363444003,1.9602229161461313,-1.3144510929082294
2025-02-10 15:44:25.606602,-0.59,1.03,-1.34,0.0545415391248228,-0.039269908169872414,-0.1439896632895322
2025-02-10 15:44:25.716126,1.1400000000000001,-0.28,-0.8,0.15926129424448257,-0.1930770485018727,0.39051742013373125
2025-02-10 15:44:25.826825,0.63,-0.14,-0.15,-0.07417649320975901,-0.07417649320975901,-0.05672320068981571
2025-02-10 15:44:25.937223,0.5,-0.43,-0.43,-0.03490658503988659,0.007635815477475192,0.017453292519943295
2025-02-10 15:44:26.048295,0.74,-0.35000000000000003,-0.45,-0.030543261909900768,0.02399827721492203,0.09272061651219876
2025-02-10 15:44:26.157151,0.33,0.0,-0.02,-0.17889624832941878,-0.09272061651219876,-0.08617563181722002
2025-02-10 15:44:26.266174,0.43,-0.33,0.0,-0.15162547876700738,0.004363323129985824,-0.18544123302439752
2025-02-10 15:44:26.375128,0.23,-0.21,-0.07,-0.16580627893946132,0.031634092692397225,-0.22143864884678055
2025-02-10 15:44:26.485297,0.0,-0.22,-0.12,-0.17998707911191522,0.1189005552921137,-0.09817477042468103
2025-02-10 15:44:26.596036,0.25,-0.2,0.08,-0.15926129424448257,0.07417649320975901,0.09381144729469522
2025-02-10 15:44:26.706364,0.11,0.03,-0.67,-0.19416787928436915,-0.016362461737446838,0.050178215994836975
2025-02-10 15:44:26.815293,0.96,-0.7000000000000001,-2.27,0.0272707695624114,-0.014180800172453928,-0.17780541754692233
2025-02-10 15:44:26.924490,-0.08,-0.97,0.25,0.5519603759432067,0.0545415391248228,0.21925698728178766
2025-02-10 15:44:27.035162,-0.6,-1.34,1.72,0.11344640137963143,-0.004363323129985824,-0.04581489286485115
2025-02-10 15:44:27.145753,0.36,0.88,0.07,-0.020725784867432664,-0.03599741582238305,-0.20507618710933373
2025-02-10 15:44:27.256618,0.31,-0.29,0.1,0.009817477042468103,-0.136353847812057,-0.10035643198967395
2025-02-10 15:44:27.365663,0.28,0.0,0.18,0.011999138607461015,-0.06654067773228381,-0.030543261909900768
2025-02-10 15:44:27.474600,0.18,-0.14,-0.05,0.032724923474893676,0.014180800172453928,-0.04145156973486533
2025-02-10 15:44:27.583572,0.1,-0.14,-0.08,0.04581489286485115,0.007635815477475192,-0.025089107997418487
2025-02-10 15:44:27.694075,0.12,-0.17,-0.08,0.04254240051736178,0.006544984694978736,0.06544984694978735
2025-02-10 15:44:27.804476,0.32,-0.16,0.0,0.0272707695624114,0.0272707695624114,0.002181661564992912
2025-02-10 15:44:27.914362,0.21,-0.15,-0.04,-0.002181661564992912,0.011999138607461015,-0.061086523819801536
2025-02-10 15:44:28.023435,0.07,-0.17,0.0,-0.032724923474893676,-0.011999138607461015,-0.013089969389957472
2025-02-10 15:44:28.132403,0.2,-0.14,0.02,-0.003272492347489368,-0.022907446432425576,0.028361600344907856
2025-02-10 15:44:28.242343,0.2,-0.17,-0.01,-0.02945243112740431,-0.013089969389957472,-0.07090400086226964
2025-02-10 15:44:28.352955,0.14,-0.12,-0.01,-0.04363323129985824,0.018544123302439753,-0.07417649320975901
2025-02-10 15:44:28.463416,0.13,-0.02,0.0,-0.05672320068981571,0.02945243112740431,-0.10362892433716332
2025-02-10 15:44:28.572425,-0.03,-0.16,0.05,-0.04145156973486533,0.028361600344907856,-0.05345070834232634
2025-02-10 15:44:28.681348,0.01,-0.14,0.03,-0.032724923474893676,0.022907446432425576,-0.032724923474893676
2025-02-10 15:44:28.791869,0.06,-0.16,0.03,-0.018544123302439753,0.00545415391248228,0.001090830782496456
2025-02-10 15:44:28.902973,0.06,-0.13,0.02,-0.004363323129985824,-0.007635815477475192,0.026179938779914945
2025-02-10 15:44:29.013264,0.05,-0.11,0.02,0.006544984694978736,-0.00545415391248228,0.00545415391248228
2025-02-10 15:44:29.122969,0.07,-0.16,0.0,0.009817477042468103,-0.003272492347489368,0.015271630954950384
2025-02-10 15:44:29.233145,1.33,-0.16,-0.01,0.011999138607461015,0.002181661564992912,0.028361600344907856
2025-02-10 15:44:29.342354,0.04,-0.13,0.01,0.019634954084936207,0.002181661564992912,0.05235987755982989
2025-02-10 15:44:29.453220,0.13,-0.13,0.0,0.014180800172453928,-0.007635815477475192,0.037088246604879506
2025-02-10 15:44:29.563731,0.08,-0.14,-0.01,0.009817477042468103,-0.016362461737446838,0.02399827721492203
2025-02-10 15:44:29.674229,0.08,-0.14,-0.02,0.011999138607461015,-0.017453292519943295,0.032724923474893676
2025-02-10 15:44:29.783178,0.09,-0.16,-0.02,0.014180800172453928,-0.017453292519943295,0.02945243112740431
2025-02-10 15:44:29.893725,0.1,-0.13,-0.01,0.013089969389957472,-0.013089969389957472,0.009817477042468103
2025-02-10 15:44:30.004348,0.13,-0.16,-0.04,0.011999138607461015,-0.006544984694978736,-0.004363323129985824
2025-02-10 15:44:30.115058,0.02,-0.11,-0.02,0.011999138607461015,-0.006544984694978736,-0.007635815477475192
2025-02-10 15:44:30.225836,0.04,-0.11,-0.02,0.011999138607461015,-0.008726646259971648,-0.009817477042468103
2025-02-10 15:44:30.335372,0.05,-0.13,-0.02,0.004363323129985824,-0.014180800172453928,-0.018544123302439753
2025-02-10 15:44:30.446128,0.01,-0.11,-0.01,0.0,-0.01090830782496456,-0.00545415391248228
