Time,AccX,AccY,AccZ,GyroX,GyroY,GyroZ
2025-03-17 15:31:26.534610,0.0,0.0,0.0,-0.001090830782496456,-0.002181661564992912,-0.001090830782496456
2025-03-17 15:31:26.590891,0.0,0.0,0.0,0.002181661564992912,-0.00545415391248228,-0.001090830782496456
2025-03-17 15:31:26.646585,0.16,-0.75,-0.39,0.0,-0.004363323129985824,0.0
2025-03-17 15:31:26.702160,-0.02,0.02,-0.36,0.002181661564992912,-0.003272492347489368,0.001090830782496456
2025-03-17 15:31:26.758406,-0.01,0.04,-0.34,0.001090830782496456,-0.003272492347489368,0.002181661564992912
2025-03-17 15:31:26.813438,0.0,0.06,-0.34,-0.001090830782496456,-0.002181661564992912,0.001090830782496456
2025-03-17 15:31:26.870448,-0.03,0.01,-0.36,0.0,-0.003272492347489368,0.003272492347489368
2025-03-17 15:31:26.925429,-0.02,0.04,-0.35000000000000003,0.0,-0.00545415391248228,0.001090830782496456
2025-03-17 15:31:26.981615,0.0,0.04,-0.33,0.003272492347489368,-0.003272492347489368,-0.001090830782496456
2025-03-17 15:31:27.035955,-0.01,0.03,-0.33,0.0,-0.007635815477475192,0.002181661564992912
2025-03-17 15:31:27.092905,0.0,0.03,-0.36,0.001090830782496456,-0.003272492347489368,0.003272492347489368
2025-03-17 15:31:27.147484,-0.02,0.03,-0.36,0.001090830782496456,-0.003272492347489368,0.002181661564992912
2025-03-17 15:31:27.203958,0.0,0.01,-0.34,-0.001090830782496456,-0.002181661564992912,0.001090830782496456
2025-03-17 15:31:27.259042,-0.02,0.04,-0.35000000000000003,-0.001090830782496456,-0.001090830782496456,-0.001090830782496456
2025-03-17 15:31:27.315171,-0.01,0.05,-0.34,-0.001090830782496456,-0.004363323129985824,0.001090830782496456
2025-03-17 15:31:27.370520,0.0,0.02,-0.35000000000000003,-0.001090830782496456,0.0,-0.001090830782496456
2025-03-17 15:31:27.426239,0.0,0.03,-0.34,0.001090830782496456,-0.001090830782496456,0.001090830782496456
2025-03-17 15:31:27.480501,-0.02,0.02,-0.35000000000000003,0.001090830782496456,0.0,-0.001090830782496456
2025-03-17 15:31:27.535992,-0.02,0.06,-0.35000000000000003,0.0,0.001090830782496456,0.002181661564992912
2025-03-17 15:31:27.591000,-0.01,0.02,-0.33,-0.002181661564992912,0.0,0.001090830782496456
2025-03-17 15:31:27.647136,0.0,0.03,-0.36,-0.001090830782496456,-0.001090830782496456,-0.001090830782496456
2025-03-17 15:31:27.702926,-0.02,0.04,-0.35000000000000003,-0.001090830782496456,0.003272492347489368,0.0
2025-03-17 15:31:27.758642,0.0,0.01,-0.35000000000000003,-0.003272492347489368,0.001090830782496456,0.002181661564992912
2025-03-17 15:31:27.815039,-0.01,0.05,-0.38,-0.001090830782496456,-0.002181661564992912,0.0
2025-03-17 15:31:27.870006,0.0,0.0,-0.39,0.002181661564992912,0.002181661564992912,-0.001090830782496456
2025-03-17 15:31:27.927470,-0.02,0.01,-0.35000000000000003,-0.001090830782496456,-0.002181661564992912,-0.001090830782496456
2025-03-17 15:31:27.981850,0.0,0.02,-0.38,-0.001090830782496456,-0.002181661564992912,0.0
2025-03-17 15:31:28.037266,-0.01,0.03,-0.37,0.002181661564992912,-0.002181661564992912,0.001090830782496456
2025-03-17 15:31:28.091839,0.0,0.06,-0.33,0.001090830782496456,-0.002181661564992912,0.0
2025-03-17 15:31:28.149181,0.0,0.0,-0.39,0.001090830782496456,-0.001090830782496456,0.0
2025-03-17 15:31:28.203962,-0.04,0.04,-0.36,0.002181661564992912,0.0,-0.001090830782496456
2025-03-17 15:31:28.260470,0.02,0.0,-0.29,-0.002181661564992912,0.004363323129985824,-0.001090830782496456
2025-03-17 15:31:28.316063,-0.03,0.07,-0.35000000000000003,0.001090830782496456,0.0,0.0
2025-03-17 15:31:28.371809,-0.04,0.0,-0.4,-0.001090830782496456,-0.001090830782496456,0.001090830782496456
2025-03-17 15:31:28.427791,0.0,0.09,-0.34,0.0,-0.00545415391248228,0.002181661564992912
2025-03-17 15:31:28.483405,0.0,-0.02,-0.34,-0.00545415391248228,0.003272492347489368,-0.001090830782496456
2025-03-17 15:31:28.537724,0.0,0.04,-0.35000000000000003,0.002181661564992912,0.002181661564992912,-0.001090830782496456
2025-03-17 15:31:28.593548,-0.05,0.03,-0.36,0.0,0.0,0.001090830782496456
2025-03-17 15:31:28.649778,0.02,0.05,-0.34,-0.001090830782496456,0.002181661564992912,0.001090830782496456
2025-03-17 15:31:28.704892,-0.01,0.02,-0.36,-0.001090830782496456,0.001090830782496456,-0.001090830782496456
2025-03-17 15:31:28.762110,-0.02,0.04,-0.36,0.001090830782496456,0.001090830782496456,-0.001090830782496456
2025-03-17 15:31:28.816349,-0.02,0.04,-0.35000000000000003,0.0,0.001090830782496456,0.0
2025-03-17 15:31:28.873660,0.0,0.0,-0.35000000000000003,0.0,-0.001090830782496456,0.0
2025-03-17 15:31:28.928784,-0.05,0.04,-0.39,0.0,0.001090830782496456,0.0
2025-03-17 15:31:28.985218,0.0,0.01,-0.34,-0.001090830782496456,0.002181661564992912,0.001090830782496456
2025-03-17 15:31:29.039477,0.0,0.05,-0.39,-0.006544984694978736,0.003272492347489368,0.0
2025-03-17 15:31:29.095457,0.01,0.0,-0.35000000000000003,0.00545415391248228,-0.003272492347489368,0.0
2025-03-17 15:31:29.150815,-0.02,0.04,-0.36,0.002181661564992912,0.0,0.0
2025-03-17 15:31:29.206849,0.0,0.0,-0.36,-0.003272492347489368,0.001090830782496456,-0.002181661564992912
2025-03-17 15:31:29.262831,0.01,0.05,-0.38,-0.002181661564992912,0.002181661564992912,0.001090830782496456
2025-03-17 15:31:29.318243,-0.06,0.86,-0.04,-0.004363323129985824,-0.011999138607461015,0.050178215994836975
2025-03-17 15:31:29.375010,0.45,-0.75,-0.6,0.07744898555724837,-0.032724923474893676,0.02399827721492203
2025-03-17 15:31:29.429923,0.24,-0.18,-0.42,-0.001090830782496456,0.002181661564992912,-0.016362461737446838
2025-03-17 15:31:29.487379,0.15,-0.21,-0.35000000000000003,0.007635815477475192,0.00545415391248228,-0.004363323129985824
2025-03-17 15:31:29.541712,-0.31,0.62,-0.25,-0.003272492347489368,0.00545415391248228,-0.00545415391248228
2025-03-17 15:31:29.597678,-0.2,-0.15,-0.28,0.001090830782496456,-0.003272492347489368,0.004363323129985824
2025-03-17 15:31:29.652830,0.22,0.15,-0.38,-0.003272492347489368,0.002181661564992912,0.002181661564992912
2025-03-17 15:31:29.709259,-0.05,0.01,-0.39,0.02399827721492203,-0.004363323129985824,-0.009817477042468103
2025-03-17 15:31:29.763309,-0.16,0.28,-0.08,0.12435470920459599,-0.037088246604879506,0.014180800172453928
2025-03-17 15:31:29.819856,-0.04,0.06,-0.14,-0.011999138607461015,-0.004363323129985824,0.001090830782496456
2025-03-17 15:31:29.874876,0.21,-0.03,-0.42,0.003272492347489368,-0.001090830782496456,0.001090830782496456
2025-03-17 15:31:29.930674,-0.1,0.07,-0.38,0.002181661564992912,0.0,0.0
2025-03-17 15:31:29.984431,0.04,0.14,-0.32,0.0,-0.003272492347489368,0.001090830782496456
2025-03-17 15:31:30.041060,0.04,-0.07,-0.48,0.004363323129985824,-0.002181661564992912,0.003272492347489368
2025-03-17 15:31:30.094808,0.04,-0.01,-0.35000000000000003,0.004363323129985824,0.003272492347489368,-0.003272492347489368
2025-03-17 15:31:30.148584,-0.03,0.15,-0.34,0.004363323129985824,-0.001090830782496456,0.007635815477475192
2025-03-17 15:31:30.203433,-0.04,0.06,-0.32,0.003272492347489368,-0.003272492347489368,-0.001090830782496456
2025-03-17 15:31:30.259133,0.09,-0.06,-0.39,0.003272492347489368,-0.003272492347489368,0.0
2025-03-17 15:31:30.314143,-0.05,0.12,-0.32,-0.002181661564992912,0.002181661564992912,-0.003272492347489368
2025-03-17 15:31:30.371307,-0.05,0.08,-0.32,0.001090830782496456,0.002181661564992912,0.002181661564992912
2025-03-17 15:31:30.425692,0.0,0.02,-0.37,0.0,-0.001090830782496456,0.0
2025-03-17 15:31:30.486462,0.11,-0.05,-0.37,-0.001090830782496456,0.003272492347489368,0.0
2025-03-17 15:31:30.546738,-0.11,0.15,-0.32,0.0,0.004363323129985824,-0.001090830782496456
2025-03-17 15:31:30.601191,0.0,-0.01,-0.32,0.002181661564992912,-0.003272492347489368,0.001090830782496456
2025-03-17 15:31:30.656492,0.07,0.05,-0.38,-0.002181661564992912,0.003272492347489368,-0.001090830782496456
2025-03-17 15:31:30.713869,-0.02,0.04,-0.32,-0.001090830782496456,0.002181661564992912,-0.001090830782496456
2025-03-17 15:31:30.772464,-0.06,0.1,-0.35000000000000003,-0.001090830782496456,0.002181661564992912,-0.001090830782496456
2025-03-17 15:31:30.828114,0.07,0.0,-0.41000000000000003,0.0,-0.001090830782496456,0.0
2025-03-17 15:31:30.885437,0.02,0.03,-0.37,-0.001090830782496456,0.001090830782496456,0.0
2025-03-17 15:31:30.939950,-0.06,0.07,-0.33,-0.001090830782496456,0.0,0.0
2025-03-17 15:31:30.997109,0.0,0.06,-0.36,-0.001090830782496456,-0.002181661564992912,0.001090830782496456
2025-03-17 15:31:31.051438,0.04,0.0,-0.34,0.0,-0.001090830782496456,0.0
2025-03-17 15:31:31.107264,-0.06,0.05,-0.35000000000000003,-0.004363323129985824,0.001090830782496456,0.0
2025-03-17 15:31:31.162471,-0.02,0.09,-0.37,0.002181661564992912,-0.002181661564992912,0.002181661564992912
2025-03-17 15:31:31.218687,0.01,0.02,-0.37,0.004363323129985824,0.0,0.003272492347489368
2025-03-17 15:31:31.274549,0.0,0.03,-0.35000000000000003,0.0272707695624114,-0.011999138607461015,0.002181661564992912
2025-03-17 15:31:31.330196,-0.01,0.09,-0.33,0.006544984694978736,-0.002181661564992912,0.001090830782496456
2025-03-17 15:31:31.386283,0.0,0.0,-0.42,-0.017453292519943295,0.002181661564992912,-0.001090830782496456
2025-03-17 15:31:31.443827,0.0,0.05,-0.29,-0.002181661564992912,0.0,0.001090830782496456
2025-03-17 15:31:31.501581,-0.01,0.06,-0.15,-0.003272492347489368,-0.004363323129985824,0.0
2025-03-17 15:31:31.555973,-0.01,0.07,-0.43,0.0,-0.003272492347489368,0.001090830782496456
2025-03-17 15:31:31.611957,-0.03,0.02,-0.19,-0.018544123302439753,0.003272492347489368,-0.002181661564992912
2025-03-17 15:31:31.668738,0.03,0.05,-0.42,-0.001090830782496456,0.003272492347489368,0.0
2025-03-17 15:31:31.723463,-0.06,0.03,-0.38,-0.004363323129985824,-0.001090830782496456,-0.002181661564992912
2025-03-17 15:31:31.780635,0.0,0.05,-0.38,-0.003272492347489368,0.0,0.002181661564992912
2025-03-17 15:31:31.835004,0.02,0.02,-0.37,-0.001090830782496456,-0.002181661564992912,0.0
2025-03-17 15:31:31.891898,0.0,0.06,-0.35000000000000003,0.0,0.0,-0.001090830782496456
2025-03-17 15:31:31.950519,-0.01,0.07,-0.37,0.0,0.0,0.0
2025-03-17 15:31:32.005598,0.02,0.05,-0.37,0.0,0.001090830782496456,0.0
2025-03-17 15:31:32.059871,-0.02,0.03,-0.34,-0.001090830782496456,-0.002181661564992912,-0.001090830782496456
2025-03-17 15:31:32.115144,-0.04,0.06,-0.36,-0.003272492347489368,0.0,0.001090830782496456
2025-03-17 15:31:32.169826,,,,-0.002181661564992912,0.001090830782496456,-0.001090830782496456
2025-03-17 15:31:32.225592,0.01,0.0,-0.37,0.001090830782496456,0.001090830782496456,0.0
2025-03-17 15:31:32.281812,0.0,0.06,-0.36,0.0,0.001090830782496456,-0.002181661564992912
2025-03-17 15:31:32.336948,-0.02,0.06,-0.37,0.002181661564992912,-0.002181661564992912,0.001090830782496456
2025-03-17 15:31:32.393931,-0.01,0.03,-0.37,-0.001090830782496456,-0.002181661564992912,0.001090830782496456
2025-03-17 15:31:32.448345,0.02,0.03,-0.35000000000000003,0.001090830782496456,-0.002181661564992912,-0.001090830782496456
2025-03-17 15:31:32.505766,-0.03,0.07,-0.35000000000000003,-0.001090830782496456,0.001090830782496456,0.0
2025-03-17 15:31:32.559952,0.0,0.03,-0.36,-0.003272492347489368,-0.001090830782496456,-0.001090830782496456
2025-03-17 15:31:32.615797,0.02,0.04,-0.35000000000000003,0.0,-0.001090830782496456,0.0
2025-03-17 15:31:32.669949,-0.01,0.05,-0.33,0.0,0.0,0.0
2025-03-17 15:31:32.726990,-0.01,0.06,-0.35000000000000003,0.001090830782496456,0.001090830782496456,-0.001090830782496456
2025-03-17 15:31:32.781721,0.0,0.02,-0.38,0.0,0.0,0.0
2025-03-17 15:31:32.838296,0.0,0.04,-0.37,0.0,-0.003272492347489368,0.0
2025-03-17 15:31:32.893514,-0.04,0.05,-0.37,0.0,-0.003272492347489368,-0.001090830782496456
2025-03-17 15:31:32.949483,-0.02,0.04,-0.37,0.001090830782496456,-0.001090830782496456,0.003272492347489368
2025-03-17 15:31:33.005128,0.0,0.04,-0.38,0.001090830782496456,0.002181661564992912,0.001090830782496456
2025-03-17 15:31:33.060878,-0.02,0.05,-0.35000000000000003,0.0,-0.00545415391248228,0.001090830782496456
2025-03-17 15:31:33.115021,0.0,0.06,-0.33,-0.002181661564992912,-0.001090830782496456,0.002181661564992912
2025-03-17 15:31:33.170693,0.0,0.05,-0.37,-0.001090830782496456,-0.001090830782496456,0.0
2025-03-17 15:31:33.226367,0.0,0.05,-0.33,0.003272492347489368,0.0,-0.001090830782496456
2025-03-17 15:31:33.281947,-0.04,0.04,-0.29,-0.003272492347489368,0.001090830782496456,0.0
2025-03-17 15:31:33.338184,0.0,0.07,-0.38,-0.002181661564992912,-0.003272492347489368,-0.001090830782496456
2025-03-17 15:31:33.393251,0.01,0.02,-0.36,0.002181661564992912,0.0,0.0
2025-03-17 15:31:33.450189,-0.01,0.06,-0.38,0.0,0.002181661564992912,0.0
2025-03-17 15:31:33.504643,0.0,0.06,-0.36,-0.001090830782496456,0.002181661564992912,-0.002181661564992912
2025-03-17 15:31:33.562004,0.0,0.04,-0.34,0.0,0.0,0.0
2025-03-17 15:31:33.616119,0.0,0.04,-0.38,0.002181661564992912,-0.003272492347489368,0.001090830782496456
2025-03-17 15:31:33.671331,-0.02,0.05,-0.33,0.0,0.004363323129985824,-0.001090830782496456
2025-03-17 15:31:33.725799,0.0,0.03,-0.4,-0.00545415391248228,0.004363323129985824,0.0
2025-03-17 15:31:33.783051,-0.02,0.05,-0.35000000000000003,-0.007635815477475192,0.004363323129985824,0.001090830782496456
2025-03-17 15:31:33.837308,0.01,0.02,-0.37,0.009817477042468103,-0.001090830782496456,0.001090830782496456
2025-03-17 15:31:33.894163,-0.02,0.05,-0.38,-0.009817477042468103,0.008726646259971648,0.003272492347489368
2025-03-17 15:31:33.949559,-0.02,0.06,-0.15,-0.003272492347489368,0.004363323129985824,0.001090830782496456
2025-03-17 15:31:34.005690,0.07,-0.81,-1.4000000000000001,-0.2792526803190927,0.11344640137963143,-1.2926344772583003
2025-03-17 15:31:34.061472,-0.04,0.11,-0.23,0.13526301702956053,-0.014180800172453928,-1.1377365061438036
2025-03-17 15:31:34.117222,-0.07,0.42,-0.33,0.05672320068981571,-0.001090830782496456,-0.6021385919380436
2025-03-17 15:31:34.171472,-0.04,-0.03,-0.35000000000000003,-0.038179077387375956,0.02181661564992912,-0.04908738521234052
2025-03-17 15:31:34.225934,-0.29,-0.24,-0.25,0.08508480103472356,-0.04036073895236887,0.1439896632895322
2025-03-17 15:31:34.280220,-0.03,0.05,-0.35000000000000003,-0.02181661564992912,0.006544984694978736,0.00545415391248228
2025-03-17 15:31:34.334519,-0.15,0.06,-0.34,-0.2454369260617026,0.06654067773228381,1.3908092476829814
2025-03-17 15:31:34.389406,-0.05,0.01,-0.41000000000000003,0.0,0.002181661564992912,0.003272492347489368
2025-03-17 15:31:34.446757,-0.05,0.0,-0.38,0.002181661564992912,-0.002181661564992912,0.002181661564992912
2025-03-17 15:31:34.501040,-0.06,0.04,-0.34,-0.001090830782496456,0.003272492347489368,-0.001090830782496456
2025-03-17 15:31:34.557844,-0.04,0.04,-0.36,-0.002181661564992912,0.001090830782496456,-0.001090830782496456
2025-03-17 15:31:34.612073,-0.06,0.04,-0.35000000000000003,-0.002181661564992912,0.004363323129985824,0.001090830782496456
2025-03-17 15:31:34.669068,-0.06,0.05,-0.4,0.0,-0.002181661564992912,-0.001090830782496456
2025-03-17 15:31:34.723365,-0.04,0.04,-0.39,-0.001090830782496456,0.003272492347489368,0.0
2025-03-17 15:31:34.779003,-0.04,0.04,-0.35000000000000003,0.0,0.002181661564992912,0.001090830782496456
2025-03-17 15:31:34.833255,-0.07,0.07,-0.35000000000000003,0.001090830782496456,0.003272492347489368,0.001090830782496456
2025-03-17 15:31:34.890135,-0.04,0.03,-0.34,0.0,-0.001090830782496456,0.0
2025-03-17 15:31:34.944383,-0.04,0.04,-0.35000000000000003,-0.001090830782496456,0.0,0.001090830782496456
2025-03-17 15:31:35.001097,-0.06,0.05,-0.36,0.001090830782496456,0.003272492347489368,0.0
2025-03-17 15:31:35.055919,-0.07,0.03,-0.38,0.001090830782496456,0.001090830782496456,-0.002181661564992912
2025-03-17 15:31:35.112256,-0.02,0.05,-0.39,-0.001090830782496456,0.0,0.001090830782496456
2025-03-17 15:31:35.167466,-0.07,0.02,-0.38,-0.001090830782496456,0.001090830782496456,-0.001090830782496456
2025-03-17 15:31:35.223436,-0.05,0.03,-0.36,0.0,-0.003272492347489368,0.002181661564992912
2025-03-17 15:31:35.277713,-0.05,0.04,-0.38,0.0,0.001090830782496456,0.001090830782496456
2025-03-17 15:31:35.333351,-0.04,0.04,-0.37,0.0,0.0,0.002181661564992912
2025-03-17 15:31:35.388171,-0.05,0.03,-0.33,0.0,0.004363323129985824,-0.001090830782496456
2025-03-17 15:31:35.444301,-0.05,0.03,-0.33,0.001090830782496456,-0.14180800172453928,0.002181661564992912
2025-03-17 15:31:35.499977,-0.04,0.04,-0.38,0.0,0.001090830782496456,0.0
2025-03-17 15:31:35.555712,-0.03,0.0,-0.34,-0.001090830782496456,0.002181661564992912,-0.001090830782496456
2025-03-17 15:31:35.616135,-0.05,0.04,-0.4,-0.001090830782496456,-0.001090830782496456,0.0
2025-03-17 15:31:35.676325,-0.04,0.03,-0.35000000000000003,-0.001090830782496456,0.00545415391248228,0.002181661564992912
2025-03-17 15:31:35.735268,-0.06,0.04,-0.35000000000000003,0.001090830782496456,0.001090830782496456,0.0
2025-03-17 15:31:35.795758,-0.03,0.03,-0.38,-0.001090830782496456,0.002181661564992912,-0.001090830782496456
2025-03-17 15:31:35.856241,-0.05,0.05,-0.37,0.0,0.0,0.0
2025-03-17 15:31:35.916711,-0.04,0.05,-0.37,-0.001090830782496456,0.0,0.001090830782496456
2025-03-17 15:31:35.977741,-0.05,0.03,-0.36,0.001090830782496456,0.002181661564992912,0.0
2025-03-17 15:31:36.038274,-0.05,0.07,-0.4,0.003272492347489368,0.002181661564992912,0.0
2025-03-17 15:31:36.098723,-0.03,0.02,-0.37,0.002181661564992912,-0.001090830782496456,0.001090830782496456
2025-03-17 15:31:36.159449,-0.04,0.05,-0.36,0.0,0.001090830782496456,-0.001090830782496456
2025-03-17 15:31:36.219957,-0.08,0.02,-0.39,0.0,0.0,-0.001090830782496456
2025-03-17 15:31:36.281320,-0.04,0.04,-0.33,0.001090830782496456,-0.002181661564992912,-0.001090830782496456
2025-03-17 15:31:36.341539,-0.07,0.04,-0.32,-0.003272492347489368,0.001090830782496456,0.001090830782496456
2025-03-17 15:31:36.402348,-0.05,0.03,-0.36,-0.002181661564992912,0.002181661564992912,0.0
2025-03-17 15:31:36.462766,-0.05,0.03,-0.35000000000000003,0.0,0.0,0.0
2025-03-17 15:31:36.523165,-0.01,0.04,-0.39,-0.001090830782496456,0.001090830782496456,0.002181661564992912
2025-03-17 15:31:36.583691,-0.07,0.05,-0.36,0.0,-0.001090830782496456,0.0
2025-03-17 15:31:36.643036,0.0,0.05,-0.35000000000000003,-0.001090830782496456,-0.001090830782496456,0.001090830782496456
2025-03-17 15:31:36.703754,-0.05,0.03,-0.37,0.001090830782496456,0.0,0.001090830782496456
2025-03-17 15:31:36.764348,-0.03,0.05,-0.36,-0.001090830782496456,-0.002181661564992912,0.002181661564992912
2025-03-17 15:31:36.833516,-0.06,0.0,-0.36,0.0,0.001090830782496456,-0.001090830782496456
2025-03-17 15:31:36.893809,-0.04,0.07,-0.38,0.001090830782496456,0.0,0.001090830782496456
2025-03-17 15:31:36.952827,-0.06,0.0,-0.34,0.03490658503988659,-0.013089969389957472,0.003272492347489368
2025-03-17 15:31:37.013418,-0.03,0.01,-0.36,0.0,0.0,0.001090830782496456
2025-03-17 15:31:37.073833,-0.03,0.06,-0.4,-0.003272492347489368,0.002181661564992912,0.002181661564992912
2025-03-17 15:31:37.134807,-0.06,0.05,-0.33,-0.001090830782496456,0.001090830782496456,-0.001090830782496456
2025-03-17 15:31:37.195122,-0.06,0.04,-0.37,-0.002181661564992912,0.0,0.001090830782496456
2025-03-17 15:31:37.255851,-0.04,0.06,-0.37,-0.001090830782496456,0.001090830782496456,0.0
2025-03-17 15:31:37.316720,-0.04,0.0,-0.37,0.0,-0.004363323129985824,0.0
2025-03-17 15:31:37.377110,-0.03,0.09,-0.38,-0.001090830782496456,0.0,0.001090830782496456
2025-03-17 15:31:37.437574,-0.03,-0.02,-0.35000000000000003,-0.002181661564992912,-0.002181661564992912,-0.001090830782496456
2025-03-17 15:31:37.496958,-0.05,0.11,-0.36,0.0,0.0,0.001090830782496456
2025-03-17 15:31:37.557927,-0.08,0.0,-0.36,0.0,-0.001090830782496456,0.001090830782496456
2025-03-17 15:31:37.619413,-0.02,0.0,-0.36,0.0,0.002181661564992912,-0.002181661564992912
2025-03-17 15:31:37.680037,-0.06,0.05,-0.38,0.001090830782496456,0.0,0.0
2025-03-17 15:31:37.740813,-0.05,0.0,-0.38,0.0,0.0,0.001090830782496456
2025-03-17 15:31:37.800025,-0.04,0.07,-0.32,-0.002181661564992912,-0.002181661564992912,0.002181661564992912
2025-03-17 15:31:37.860983,0.03,0.01,-0.35000000000000003,-0.001090830782496456,-0.001090830782496456,0.0
2025-03-17 15:31:37.922423,-0.07,0.03,-0.35000000000000003,0.0,0.0,0.0
2025-03-17 15:31:37.983068,-0.02,0.06,-0.4,0.0,0.0,-0.001090830782496456
2025-03-17 15:31:38.043062,-0.04,0.01,-0.34,0.0,0.0,0.001090830782496456
2025-03-17 15:31:38.102373,-0.05,0.0,-0.35000000000000003,-0.003272492347489368,0.001090830782496456,-0.001090830782496456
2025-03-17 15:31:38.163042,-0.04,0.02,-0.28,-0.001090830782496456,0.0,0.0
2025-03-17 15:31:38.223352,-0.03,0.0,-0.37,-0.001090830782496456,-0.001090830782496456,0.0
2025-03-17 15:31:38.283772,-0.1,0.06,-0.36,0.0,-0.002181661564992912,0.002181661564992912
2025-03-17 15:31:38.344379,0.02,0.06,-0.41000000000000003,-0.001090830782496456,-0.002181661564992912,-0.001090830782496456
2025-03-17 15:31:38.403823,-0.12,0.02,-0.33,-0.001090830782496456,-0.002181661564992912,-0.001090830782496456
2025-03-17 15:31:38.464448,-0.01,0.04,-0.37,0.0,-0.002181661564992912,-0.001090830782496456
2025-03-17 15:31:38.524857,-0.08,0.11,-0.39,0.0,0.001090830782496456,0.001090830782496456
2025-03-17 15:31:38.586216,-0.02,0.0,-0.38,-0.001090830782496456,0.001090830782496456,-0.002181661564992912
2025-03-17 15:31:38.647240,-0.08,0.04,-0.39,0.0,0.0,0.0
2025-03-17 15:31:38.706618,0.0,0.04,-0.39,-0.001090830782496456,-0.003272492347489368,0.002181661564992912
2025-03-17 15:31:38.766987,-0.05,-0.01,-0.37,0.001090830782496456,-0.002181661564992912,0.0
2025-03-17 15:31:38.827373,-0.01,0.06,-0.33,-0.001090830782496456,0.002181661564992912,0.0
2025-03-17 15:31:38.887590,-0.03,0.05,-0.37,0.0,0.001090830782496456,-0.001090830782496456
2025-03-17 15:31:38.948599,-0.04,0.01,-0.38,0.0,-0.002181661564992912,0.0
2025-03-17 15:31:39.008953,-0.03,0.06,-0.29,0.002181661564992912,-0.003272492347489368,-0.001090830782496456
2025-03-17 15:31:39.070084,-0.04,0.05,-0.41000000000000003,0.0,-0.002181661564992912,0.002181661564992912
2025-03-17 15:31:39.130575,-0.05,0.03,-0.38,0.0,-0.004363323129985824,0.001090830782496456
2025-03-17 15:31:39.191034,-0.07,0.04,-0.36,0.0,-0.002181661564992912,0.0
2025-03-17 15:31:39.251272,-0.03,0.06,-0.47000000000000003,0.0,0.003272492347489368,-0.001090830782496456
2025-03-17 15:31:39.311492,-0.06,0.05,-0.32,-0.001090830782496456,0.004363323129985824,0.001090830782496456
2025-03-17 15:31:39.373095,-0.06,0.0,-0.36,-0.001090830782496456,0.0,-0.001090830782496456
2025-03-17 15:31:39.433743,-0.03,0.07,-0.38,0.001090830782496456,-0.002181661564992912,0.002181661564992912
2025-03-17 15:31:39.494172,-0.01,0.02,-0.4,0.0,0.0,-0.002181661564992912
2025-03-17 15:31:39.554025,-0.06,0.01,-0.38,0.0,0.001090830782496456,0.0
2025-03-17 15:31:39.614252,-0.02,0.03,-0.36,-0.003272492347489368,-0.001090830782496456,-0.002181661564992912
2025-03-17 15:31:39.675199,0.0,0.11,-0.38,0.004363323129985824,-0.002181661564992912,0.011999138607461015
2025-03-17 15:31:39.736651,-0.09,-0.05,-0.33,-0.009817477042468103,0.003272492347489368,-0.006544984694978736
2025-03-17 15:31:39.798589,-0.04,0.03,-0.35000000000000003,0.0,0.0,-0.001090830782496456
2025-03-17 15:31:39.857559,-0.04,0.01,-0.37,0.0,-0.001090830782496456,-0.001090830782496456
2025-03-17 15:31:39.918582,-0.07,0.0,-0.33,-0.001090830782496456,0.002181661564992912,-0.003272492347489368
2025-03-17 15:31:39.979399,-0.02,0.07,-0.35000000000000003,-0.001090830782496456,0.003272492347489368,-0.001090830782496456
2025-03-17 15:31:40.041870,-0.06,0.01,-0.38,0.0,0.003272492347489368,0.001090830782496456
2025-03-17 15:31:40.103157,-0.09,0.0,-0.35000000000000003,0.003272492347489368,-0.004363323129985824,0.04690572364734761
2025-03-17 15:31:40.162884,-0.03,0.07,-0.39,-0.002181661564992912,0.003272492347489368,0.002181661564992912
2025-03-17 15:31:40.223759,-0.03,0.04,-0.37,0.0,-0.002181661564992912,0.003272492347489368
2025-03-17 15:31:40.284325,-0.03,0.02,-0.33,-0.001090830782496456,0.001090830782496456,0.0
2025-03-17 15:31:40.344941,-0.01,0.06,-0.35000000000000003,0.0,0.002181661564992912,0.0
2025-03-17 15:31:40.406399,-0.02,0.01,-0.28,0.0,0.003272492347489368,0.0
2025-03-17 15:31:40.465862,-0.06,0.02,-0.34,-0.001090830782496456,-0.001090830782496456,0.0
2025-03-17 15:31:40.526630,0.0,0.01,-0.35000000000000003,-0.001090830782496456,0.002181661564992912,0.0
2025-03-17 15:31:40.586938,-0.08,0.09,-0.38,-0.002181661564992912,0.002181661564992912,0.001090830782496456
2025-03-17 15:31:40.647322,-0.04,0.0,-0.39,-0.002181661564992912,0.002181661564992912,-0.002181661564992912
2025-03-17 15:31:40.707934,-0.06,0.05,-0.36,-0.001090830782496456,0.001090830782496456,0.0
2025-03-17 15:31:40.768440,0.0,0.03,-0.48,-0.001090830782496456,0.002181661564992912,0.0
2025-03-17 15:31:40.829703,-0.09,0.08,-0.22,-0.001090830782496456,0.0,-0.001090830782496456
2025-03-17 15:31:40.890047,0.02,-0.01,-0.33,-0.002181661564992912,0.002181661564992912,-0.002181661564992912
2025-03-17 15:31:40.950384,-0.06,0.02,-0.42,-0.001090830782496456,0.0,-0.001090830782496456
2025-03-17 15:31:41.010964,-0.05,0.03,-0.34,-0.004363323129985824,0.002181661564992912,0.0
2025-03-17 15:31:41.071632,-0.08,0.1,-0.36,-0.002181661564992912,-0.003272492347489368,0.0
2025-03-17 15:31:41.132952,-0.06,-0.08,-0.39,0.0,-0.001090830782496456,-0.002181661564992912
2025-03-17 15:31:41.193576,0.06,-0.02,-0.35000000000000003,-0.002181661564992912,-0.001090830782496456,0.001090830782496456
2025-03-17 15:31:41.253893,-0.11,0.09,-0.36,0.001090830782496456,-0.00545415391248228,0.004363323129985824
2025-03-17 15:31:41.314269,-0.06,0.06,-0.39,-0.001090830782496456,-0.002181661564992912,-0.002181661564992912
2025-03-17 15:31:41.374337,0.03,-0.08,-0.33,-0.001090830782496456,0.001090830782496456,-0.002181661564992912
2025-03-17 15:31:41.434774,-0.09,0.07,-0.36,0.001090830782496456,-0.003272492347489368,0.003272492347489368
2025-03-17 15:31:41.495212,-0.02,0.0,-0.36,0.002181661564992912,-0.003272492347489368,0.003272492347489368
2025-03-17 15:31:41.555416,0.0,0.08,-0.35000000000000003,0.0,0.002181661564992912,-0.001090830782496456
2025-03-17 15:31:41.615374,-0.1,-0.05,-0.33,0.001090830782496456,0.001090830782496456,0.004363323129985824
2025-03-17 15:31:41.674785,-0.01,0.11,-0.37,0.0,0.001090830782496456,0.002181661564992912
2025-03-17 15:31:41.735143,0.03,0.03,-0.36,0.0,-0.003272492347489368,-0.002181661564992912
2025-03-17 15:31:41.796357,-0.05,0.01,-0.32,0.0,0.001090830782496456,0.0
2025-03-17 15:31:41.857782,-0.05,0.0,-0.41000000000000003,0.001090830782496456,-0.002181661564992912,0.001090830782496456
2025-03-17 15:31:41.917889,0.0,0.04,-0.32,0.001090830782496456,-0.001090830782496456,0.001090830782496456
2025-03-17 15:31:41.977379,0.0,-0.03,-0.38,0.001090830782496456,0.001090830782496456,0.0
2025-03-17 15:31:42.037923,-0.09,0.1,-0.36,-0.001090830782496456,0.002181661564992912,-0.001090830782496456
2025-03-17 15:31:42.098275,0.03,-0.08,-0.37,0.0,0.002181661564992912,0.0
2025-03-17 15:31:42.158336,-0.08,0.06,-0.36,-0.001090830782496456,0.001090830782496456,-0.001090830782496456
2025-03-17 15:31:42.218757,0.01,-0.01,-0.35000000000000003,0.0,0.002181661564992912,0.0
2025-03-17 15:31:42.278188,-0.09,0.05,-0.34,0.0,-0.001090830782496456,0.001090830782496456
2025-03-17 15:31:42.338804,0.0,0.0,-0.35000000000000003,-0.001090830782496456,0.002181661564992912,-0.001090830782496456
2025-03-17 15:31:42.399297,0.02,0.04,-0.38,0.001090830782496456,0.0,-0.003272492347489368
2025-03-17 15:31:42.459773,-0.05,0.05,-0.36,0.001090830782496456,0.001090830782496456,0.0
2025-03-17 15:31:42.520400,-0.04,-0.06,-0.34,-0.001090830782496456,-0.002181661564992912,-0.002181661564992912
2025-03-17 15:31:42.579830,-0.04,0.11,-0.35000000000000003,0.0,-0.002181661564992912,0.003272492347489368
2025-03-17 15:31:42.640312,-0.06,0.1,-0.34,0.0,-0.001090830782496456,-0.001090830782496456
2025-03-17 15:31:42.700893,-0.04,-0.16,-0.36,0.0,-0.002181661564992912,-0.001090830782496456
2025-03-17 15:31:42.761420,-0.03,0.16,-0.36,-0.001090830782496456,0.002181661564992912,0.0
2025-03-17 15:31:42.821964,-0.01,-0.03,-0.37,-0.001090830782496456,-0.001090830782496456,-0.001090830782496456
2025-03-17 15:31:42.881589,0.0,0.12,-0.38,0.0,0.0,0.0
2025-03-17 15:31:42.942380,0.01,-0.11,-0.25,-0.002181661564992912,0.002181661564992912,-0.002181661564992912
2025-03-17 15:31:43.002892,-0.04,0.09,-0.38,0.001090830782496456,0.002181661564992912,0.002181661564992912
2025-03-17 15:31:43.063276,-0.07,0.08,-0.36,-0.001090830782496456,0.002181661564992912,-0.001090830782496456
2025-03-17 15:31:43.123843,-0.02,-0.01,-0.32,-0.002181661564992912,-0.003272492347489368,0.0
2025-03-17 15:31:43.183759,-0.02,-0.01,-0.41000000000000003,0.0,0.001090830782496456,0.0
2025-03-17 15:31:43.244314,-0.04,0.09,-0.34,-0.002181661564992912,0.003272492347489368,-0.001090830782496456
2025-03-17 15:31:43.304824,0.0,-0.02,-0.38,-0.002181661564992912,-0.001090830782496456,0.001090830782496456
2025-03-17 15:31:43.365168,-0.1,0.06,-0.6,-0.001090830782496456,0.003272492347489368,0.001090830782496456
2025-03-17 15:31:43.425818,0.04,-0.03,-0.34,0.0,-0.001090830782496456,0.0
2025-03-17 15:31:43.485138,-0.1,0.06,-0.38,0.001090830782496456,-0.004363323129985824,-0.001090830782496456
2025-03-17 15:31:43.545541,0.04,-0.02,-0.52,0.001090830782496456,0.002181661564992912,-0.001090830782496456
2025-03-17 15:31:43.606024,-0.07,-0.02,-0.38,0.002181661564992912,-0.004363323129985824,-0.002181661564992912
2025-03-17 15:31:43.666200,-0.07,0.01,-0.36,0.002181661564992912,-0.002181661564992912,0.001090830782496456
2025-03-17 15:31:43.726830,0.04,0.07,-0.32,0.001090830782496456,0.002181661564992912,0.001090830782496456
2025-03-17 15:31:43.787093,-0.11,0.09,-0.34,0.0,0.001090830782496456,0.0
2025-03-17 15:31:43.848333,-0.13,0.02,-0.36,-0.001090830782496456,0.0,-0.003272492347489368
2025-03-17 15:31:43.908769,0.08,-0.06,-0.4,0.002181661564992912,-0.001090830782496456,0.001090830782496456
2025-03-17 15:31:43.969048,-0.13,0.13,-0.33,-0.001090830782496456,0.001090830782496456,0.002181661564992912
2025-03-17 15:31:44.029474,0.03,-0.01,-0.36,0.002181661564992912,0.0,-0.002181661564992912
2025-03-17 15:31:44.088776,-0.05,0.07,-0.34,0.0,-0.003272492347489368,-0.002181661564992912
2025-03-17 15:31:44.149183,-0.05,-0.08,-0.4,0.0,-0.001090830782496456,0.001090830782496456
2025-03-17 15:31:44.209579,-0.03,0.08,-0.36,-0.001090830782496456,-0.003272492347489368,0.0
2025-03-17 15:31:44.269990,-0.03,0.06,-0.4,0.001090830782496456,-0.001090830782496456,0.001090830782496456
2025-03-17 15:31:44.330564,-0.09,-0.01,-0.33,0.001090830782496456,-0.001090830782496456,-0.001090830782496456
2025-03-17 15:31:44.390084,0.0,0.04,-0.35000000000000003,-0.001090830782496456,-0.001090830782496456,-0.001090830782496456
2025-03-17 15:31:44.451353,-0.02,0.03,-0.34,-0.001090830782496456,0.002181661564992912,-0.001090830782496456
2025-03-17 15:31:44.512737,-0.07,-0.01,-0.16,0.0,0.0,0.0
2025-03-17 15:31:44.572825,-0.04,0.09,-0.23,0.001090830782496456,0.001090830782496456,0.0
2025-03-17 15:31:44.633434,-0.1,0.03,-0.38,0.003272492347489368,0.001090830782496456,0.006544984694978736
2025-03-17 15:31:44.692880,0.09,-0.11,-0.38,-0.001090830782496456,-0.002181661564992912,0.001090830782496456
2025-03-17 15:31:44.753527,-0.09,0.0,-0.34,-0.001090830782496456,0.004363323129985824,-0.001090830782496456
2025-03-17 15:31:44.814144,-0.01,0.04,-0.34,0.0,0.001090830782496456,-0.004363323129985824
2025-03-17 15:31:44.875024,-0.1,0.14,-0.34,0.002181661564992912,0.0,-0.002181661564992912
2025-03-17 15:31:44.936105,0.01,-0.07,-0.41000000000000003,0.0,-0.002181661564992912,0.0
2025-03-17 15:31:44.995805,-0.03,0.05,-0.34,0.0,0.001090830782496456,0.003272492347489368
2025-03-17 15:31:45.056163,-0.03,0.1,-0.37,0.0,0.0,0.001090830782496456
2025-03-17 15:31:45.116356,-0.32,0.01,-0.28,0.08944812416470939,-0.019634954084936207,0.037088246604879506
2025-03-17 15:31:45.176465,0.04,0.08,-0.38,0.008726646259971648,-0.003272492347489368,-0.04799655442984406
2025-03-17 15:31:45.237067,-0.11,0.03,-0.34,0.0,-0.002181661564992912,0.002181661564992912
2025-03-17 15:31:45.297860,-0.05,-0.05,-0.37,0.001090830782496456,-0.003272492347489368,-0.014180800172453928
2025-03-17 15:31:45.357470,0.02,0.05,-0.43,-0.003272492347489368,0.002181661564992912,-0.07744898555724837
2025-03-17 15:31:45.418000,-0.08,0.04,-0.4,0.002181661564992912,0.002181661564992912,0.0
2025-03-17 15:31:45.478428,-0.02,0.05,-0.39,-0.003272492347489368,0.001090830782496456,0.003272492347489368
2025-03-17 15:31:45.538926,0.03,0.01,-0.36,-0.001090830782496456,0.0,0.001090830782496456
2025-03-17 15:31:45.598179,-0.14,0.09,-0.34,0.001090830782496456,0.004363323129985824,0.001090830782496456
2025-03-17 15:31:45.658458,0.0,-0.06,-0.36,0.0,-0.001090830782496456,0.001090830782496456
2025-03-17 15:31:45.719329,-0.01,0.07,-0.41000000000000003,0.002181661564992912,-0.001090830782496456,0.002181661564992912
2025-03-17 15:31:45.780543,-0.11,-0.02,-0.39,0.001090830782496456,0.001090830782496456,0.0
2025-03-17 15:31:45.840872,-0.07,0.1,-0.38,0.0,-0.002181661564992912,0.003272492347489368
2025-03-17 15:31:45.900276,-0.01,0.0,-0.36,-0.001090830782496456,-0.00545415391248228,0.003272492347489368
2025-03-17 15:31:45.960873,-0.02,0.01,-0.36,0.0,0.0,-0.001090830782496456
2025-03-17 15:31:46.021777,-0.09,0.05,-0.31,0.001090830782496456,-0.002181661564992912,0.001090830782496456
2025-03-17 15:31:46.083059,-0.04,0.0,-0.36,0.0,-0.002181661564992912,0.003272492347489368
2025-03-17 15:31:46.143339,-0.01,-0.06,-0.37,0.001090830782496456,-0.004363323129985824,0.001090830782496456
2025-03-17 15:31:46.203018,-0.11,0.23,-0.35000000000000003,0.001090830782496456,0.0,-0.001090830782496456
2025-03-17 15:31:46.263300,-0.01,-0.05,-0.3,0.0,-0.003272492347489368,0.002181661564992912
2025-03-17 15:31:46.323728,-0.1,0.04,-0.37,-0.001090830782496456,-0.001090830782496456,0.004363323129985824
2025-03-17 15:31:46.383944,0.06,-0.06,-0.38,0.001090830782496456,0.001090830782496456,-0.003272492347489368
2025-03-17 15:31:46.445153,-0.13,0.2,-0.38,-0.001090830782496456,-0.003272492347489368,0.002181661564992912
2025-03-17 15:31:46.505485,-0.04,0.0,-0.35000000000000003,0.001090830782496456,0.002181661564992912,-0.001090830782496456
2025-03-17 15:31:46.565913,-0.03,-0.01,-0.38,0.0,-0.003272492347489368,0.001090830782496456
2025-03-17 15:31:46.625785,0.0,0.11,-0.37,-0.001090830782496456,0.003272492347489368,-0.002181661564992912
2025-03-17 15:31:46.685895,-0.14,-0.04,-0.34,0.0,0.0,0.0
2025-03-17 15:31:46.746566,0.01,0.11,-0.4,-0.001090830782496456,0.003272492347489368,0.003272492347489368
2025-03-17 15:31:46.806056,-0.07,0.0,-0.35000000000000003,-0.002181661564992912,0.003272492347489368,-0.002181661564992912
2025-03-17 15:31:46.866502,-0.07,0.04,-0.36,0.0,0.004363323129985824,0.002181661564992912
2025-03-17 15:31:46.926766,-0.05,0.08,-0.37,0.0,-0.004363323129985824,-0.002181661564992912
2025-03-17 15:31:46.987191,0.0,-0.02,-0.32,0.0,0.0,0.002181661564992912
2025-03-17 15:31:47.047473,-0.14,0.06,-0.36,-0.002181661564992912,-0.001090830782496456,0.003272492347489368
2025-03-17 15:31:47.106856,0.07,0.0,-0.42,0.0,0.0,0.001090830782496456
2025-03-17 15:31:47.167199,-0.08,1.31,-0.3,0.0,-0.001090830782496456,0.001090830782496456
2025-03-17 15:31:47.227607,-0.01,0.01,-0.32,0.0,0.0,-0.001090830782496456
2025-03-17 15:31:47.287976,-0.03,0.09,-0.35000000000000003,-0.001090830782496456,-0.001090830782496456,0.0
2025-03-17 15:31:47.348533,-0.07,-0.03,-0.38,0.0,0.003272492347489368,-0.001090830782496456
2025-03-17 15:31:47.408284,0.02,0.05,-0.4,-0.001090830782496456,0.002181661564992912,0.0
2025-03-17 15:31:47.469707,-0.09,0.07,-0.34,0.0,0.003272492347489368,0.001090830782496456
2025-03-17 15:31:47.530065,-0.1,-0.11,-0.34,-0.002181661564992912,-0.002181661564992912,0.002181661564992912
2025-03-17 15:31:47.590493,0.01,0.12,-0.38,-0.002181661564992912,0.001090830782496456,0.004363323129985824
2025-03-17 15:31:47.651011,-0.05,0.1,-0.36,-0.001090830782496456,0.002181661564992912,0.0
2025-03-17 15:31:47.711214,-0.14,0.0,-0.38,-0.002181661564992912,0.003272492347489368,0.0
2025-03-17 15:31:47.772400,0.06,-0.01,-0.36,-0.002181661564992912,0.0,-0.001090830782496456
2025-03-17 15:31:47.832986,-0.12,0.13,-0.34,0.0,-0.002181661564992912,0.003272492347489368
2025-03-17 15:31:47.893368,0.03,-0.12,-0.42,0.001090830782496456,0.001090830782496456,-0.004363323129985824
2025-03-17 15:31:47.953984,-0.08,0.15,-0.3,0.0,-0.002181661564992912,-0.001090830782496456
2025-03-17 15:31:48.013540,-0.05,-0.07,-0.31,-0.001090830782496456,-0.001090830782496456,0.0
2025-03-17 15:31:48.073989,-0.02,0.15,-0.37,-0.001090830782496456,-0.003272492347489368,0.001090830782496456
2025-03-17 15:31:48.134379,-0.01,0.04,-0.37,0.0,0.0,-0.001090830782496456
2025-03-17 15:31:48.194662,-0.06,-0.05,-0.33,-0.002181661564992912,0.003272492347489368,0.001090830782496456
2025-03-17 15:31:48.256208,0.07,0.15,-0.39,0.0,0.003272492347489368,0.0
2025-03-17 15:31:48.316741,-0.03,-0.06,-0.34,-0.002181661564992912,0.0,0.002181661564992912
2025-03-17 15:31:48.376965,-0.08,0.14,-0.41000000000000003,0.002181661564992912,0.003272492347489368,0.003272492347489368
2025-03-17 15:31:48.437585,0.19,0.01,-0.42,-0.001090830782496456,-0.002181661564992912,-0.004363323129985824
2025-03-17 15:31:48.498011,-0.04,-0.17,-4.0600000000000005,-0.09708393964218458,0.061086523819801536,0.050178215994836975
2025-03-17 15:31:48.558758,0.11,0.03,0.7000000000000001,0.001090830782496456,0.001090830782496456,0.0
2025-03-17 15:31:48.619852,0.12,0.15,-0.28,0.0,0.002181661564992912,-0.001090830782496456
2025-03-17 15:31:48.680531,0.08,-0.13,-0.54,0.001090830782496456,0.0,-0.003272492347489368
2025-03-17 15:31:48.740648,0.03,0.15,-0.23,0.002181661564992912,0.001090830782496456,0.004363323129985824
2025-03-17 15:31:48.801084,0.13,0.01,-0.39,-0.001090830782496456,0.0,-0.00545415391248228
2025-03-17 15:31:48.862046,-0.11,-0.01,-0.36,0.0,0.001090830782496456,-0.001090830782496456
2025-03-17 15:31:48.923644,0.08,0.02,-0.37,-0.001090830782496456,0.002181661564992912,-0.001090830782496456
2025-03-17 15:31:48.984126,-0.06,0.09,-0.33,0.001090830782496456,0.004363323129985824,-0.001090830782496456
2025-03-17 15:31:49.044896,-0.04,0.0,-0.38,0.002181661564992912,0.002181661564992912,-0.003272492347489368
2025-03-17 15:31:49.105369,-0.07,0.05,-0.36,0.001090830782496456,-0.001090830782496456,0.001090830782496456
2025-03-17 15:31:49.164396,0.0,0.08,-0.34,0.0,0.004363323129985824,-0.002181661564992912
2025-03-17 15:31:49.225280,-0.11,-0.02,-0.37,0.002181661564992912,0.002181661564992912,-0.002181661564992912
2025-03-17 15:31:49.285692,0.03,0.03,-0.36,0.0,0.0,0.0
2025-03-17 15:31:49.345894,-0.08,0.06,-0.35000000000000003,0.0,-0.002181661564992912,-0.001090830782496456
2025-03-17 15:31:49.406292,-0.01,0.01,-0.35000000000000003,-0.001090830782496456,-0.004363323129985824,-0.001090830782496456
2025-03-17 15:31:49.466110,-0.1,0.12,-0.36,-0.001090830782496456,0.002181661564992912,0.0
2025-03-17 15:31:49.527139,0.01,-0.02,-0.38,0.0,-0.001090830782496456,-0.001090830782496456
2025-03-17 15:31:49.588358,-0.12,0.11,-0.33,-0.001090830782496456,0.0,0.002181661564992912
2025-03-17 15:31:49.648513,0.04,0.0,-0.36,-0.002181661564992912,0.0,0.0
2025-03-17 15:31:49.708821,-0.08,0.06,-0.37,0.0,-0.002181661564992912,0.001090830782496456
2025-03-17 15:31:49.768196,0.01,0.03,-0.35000000000000003,-0.001090830782496456,0.0,-0.002181661564992912
2025-03-17 15:31:49.828824,-0.03,0.04,-0.59,0.001090830782496456,-0.002181661564992912,0.001090830782496456
2025-03-17 15:31:49.890050,0.06,0.0,-0.4,0.001090830782496456,0.0,-0.001090830782496456
2025-03-17 15:31:49.951323,-0.1,0.08,-0.38,0.0,0.0,0.0
2025-03-17 15:31:50.011844,0.01,0.04,-0.38,0.0,0.001090830782496456,-0.002181661564992912
2025-03-17 15:31:50.070732,-0.06,0.0,-0.37,0.001090830782496456,0.001090830782496456,0.001090830782496456
2025-03-17 15:31:50.130984,0.01,-0.02,-0.36,0.002181661564992912,0.001090830782496456,0.001090830782496456
2025-03-17 15:31:50.192459,-0.09,0.08,-0.36,0.0,0.0,-0.001090830782496456
2025-03-17 15:31:50.253057,0.02,-0.01,-0.36,0.001090830782496456,0.001090830782496456,-0.001090830782496456
2025-03-17 15:31:50.313593,-0.09,0.02,-0.39,-0.001090830782496456,0.001090830782496456,-0.002181661564992912
2025-03-17 15:31:50.372638,0.01,0.03,-0.39,0.0,0.001090830782496456,0.0
2025-03-17 15:31:50.433361,-0.09,0.02,-0.37,-0.001090830782496456,-0.001090830782496456,0.001090830782496456
2025-03-17 15:31:50.494056,0.04,-0.01,-0.38,0.0,0.00545415391248228,0.0
2025-03-17 15:31:50.554492,-0.09,0.06,-0.36,-0.001090830782496456,0.0,0.0
2025-03-17 15:31:50.615091,0.0,0.0,-0.37,0.001090830782496456,0.0,0.0
2025-03-17 15:31:50.674376,-0.04,0.02,-0.36,-0.001090830782496456,0.001090830782496456,0.001090830782496456
2025-03-17 15:31:50.735352,-0.02,0.05,-0.36,0.0,0.001090830782496456,0.0
2025-03-17 15:31:50.796757,-0.05,0.03,-0.36,-0.001090830782496456,-0.001090830782496456,0.001090830782496456
2025-03-17 15:31:50.857027,0.01,0.03,-0.39,0.001090830782496456,0.001090830782496456,0.002181661564992912
2025-03-17 15:31:50.917609,-0.05,0.03,-0.35000000000000003,0.001090830782496456,0.0,-0.003272492347489368
2025-03-17 15:31:50.976401,-0.02,0.04,-0.34,0.001090830782496456,-0.001090830782496456,-0.001090830782496456
2025-03-17 15:31:51.036875,-0.01,0.03,-0.33,0.001090830782496456,0.0,-0.001090830782496456
2025-03-17 15:31:51.097723,-0.03,0.04,-0.36,0.0,-0.002181661564992912,0.0
2025-03-17 15:31:51.158382,-0.02,0.04,-0.38,0.0,-0.004363323129985824,-0.001090830782496456
2025-03-17 15:31:51.219181,0.0,0.01,-0.37,-0.001090830782496456,0.0,0.002181661564992912
2025-03-17 15:31:51.278129,-0.03,0.01,-0.39,0.0,0.004363323129985824,0.0
2025-03-17 15:31:51.338931,-0.03,0.06,-0.36,0.0,0.002181661564992912,0.0
2025-03-17 15:31:51.399313,-0.15,0.14,-0.33,0.001090830782496456,-0.003272492347489368,0.009817477042468103
2025-03-17 15:31:51.459252,0.14,-0.02,-0.4,0.001090830782496456,0.0,-0.006544984694978736
2025-03-17 15:31:51.519791,-0.08,0.03,-0.37,0.0,0.0,0.0
2025-03-17 15:31:51.579034,0.0,-0.04,-0.35000000000000003,0.001090830782496456,-0.002181661564992912,0.004363323129985824
2025-03-17 15:31:51.639385,-0.04,0.04,-0.36,0.0,-0.003272492347489368,-0.002181661564992912
2025-03-17 15:31:51.701421,0.09,0.0,-0.39,-0.001090830782496456,0.003272492347489368,-0.001090830782496456
2025-03-17 15:31:51.761718,-0.14,0.04,-0.37,0.0,0.004363323129985824,-0.001090830782496456
2025-03-17 15:31:51.821781,0.04,0.03,-0.34,-0.001090830782496456,-0.003272492347489368,0.0
2025-03-17 15:31:51.881119,0.02,-0.01,-0.37,0.0,0.001090830782496456,0.001090830782496456
2025-03-17 15:31:51.941763,-0.06,0.07,-0.34,0.0,0.001090830782496456,0.001090830782496456
2025-03-17 15:31:52.002250,-0.06,0.08,-0.35000000000000003,-0.002181661564992912,0.003272492347489368,0.001090830782496456
2025-03-17 15:31:52.062730,0.05,-0.05,-0.38,0.002181661564992912,-0.002181661564992912,-0.003272492347489368
2025-03-17 15:31:52.123224,-0.07,0.08,-0.31,-0.001090830782496456,0.002181661564992912,-0.001090830782496456
2025-03-17 15:31:52.182629,-0.02,0.01,-0.36,0.0,-0.001090830782496456,-0.001090830782496456
2025-03-17 15:31:52.243566,0.01,0.04,-0.35000000000000003,-0.001090830782496456,-0.003272492347489368,0.002181661564992912
2025-03-17 15:31:52.304613,0.02,-0.04,-0.38,0.0,0.004363323129985824,-0.003272492347489368
2025-03-17 15:31:52.365906,-0.09,0.08,-0.34,0.0,0.00545415391248228,0.0
2025-03-17 15:31:52.426458,0.01,0.0,-0.36,0.001090830782496456,0.0,-0.001090830782496456
2025-03-17 15:31:52.485305,-0.01,0.0,-0.38,-0.001090830782496456,0.002181661564992912,0.001090830782496456
2025-03-17 15:31:52.545832,-0.04,0.11,-0.34,0.001090830782496456,0.003272492347489368,0.0
2025-03-17 15:31:52.606535,-0.05,-0.01,-0.36,0.0,0.0,-0.001090830782496456
2025-03-17 15:31:52.666739,0.04,0.03,-0.38,0.0,0.0,-0.001090830782496456
2025-03-17 15:31:52.728139,-0.06,0.05,-0.36,0.0,0.004363323129985824,0.0
2025-03-17 15:31:52.788129,-0.04,0.0,-0.34,0.002181661564992912,0.001090830782496456,0.002181661564992912
2025-03-17 15:31:52.848735,0.0,0.01,-0.38,-0.001090830782496456,0.0,0.0
2025-03-17 15:31:52.909140,0.0,0.0,-0.36,0.001090830782496456,-0.003272492347489368,-0.001090830782496456
2025-03-17 15:31:52.969749,-0.07,0.05,-0.38,-0.001090830782496456,0.003272492347489368,-0.001090830782496456
2025-03-17 15:31:53.030079,0.0,0.0,-0.37,0.0,-0.002181661564992912,0.001090830782496456
2025-03-17 15:31:53.089035,-0.01,0.03,-0.38,0.001090830782496456,0.001090830782496456,0.0
2025-03-17 15:31:53.149602,-0.05,0.06,-0.31,0.003272492347489368,-0.002181661564992912,0.001090830782496456
2025-03-17 15:31:53.210182,0.0,0.02,-0.38,0.001090830782496456,-0.00545415391248228,0.001090830782496456
2025-03-17 15:31:53.270348,0.0,0.0,-0.38,0.002181661564992912,0.0,-0.001090830782496456
2025-03-17 15:31:53.331020,-0.05,0.05,-0.35000000000000003,0.001090830782496456,0.0,0.001090830782496456
2025-03-17 15:31:53.390273,0.01,0.01,-0.36,0.0,-0.002181661564992912,-0.002181661564992912
2025-03-17 15:31:53.451874,-0.02,0.0,-0.39,-0.002181661564992912,0.003272492347489368,0.0
2025-03-17 15:31:53.513445,-0.01,0.04,-0.39,0.0,-0.001090830782496456,-0.001090830782496456
2025-03-17 15:31:53.574008,-0.04,0.05,-0.38,0.001090830782496456,0.0,0.0
2025-03-17 15:31:53.634419,-0.01,0.0,-0.39,-0.002181661564992912,0.0,0.0
2025-03-17 15:31:53.693132,-0.06,0.05,-0.35000000000000003,0.0,0.001090830782496456,-0.02945243112740431
2025-03-17 15:31:53.754053,0.0,0.06,-0.38,0.0,-0.001090830782496456,-0.015271630954950384
2025-03-17 15:31:53.814837,-0.04,-0.08,-0.37,-0.006544984694978736,0.00545415391248228,-0.1908953869368798
2025-03-17 15:31:53.875649,-0.04,-0.01,-0.36,-0.002181661564992912,0.007635815477475192,-0.284706834231575
2025-03-17 15:31:53.937928,-0.07,0.15,-0.37,0.002181661564992912,0.003272492347489368,-0.10144726277217041
2025-03-17 15:31:53.998030,-0.06,0.26,-0.33,0.008726646259971648,0.0,0.025089107997418487
2025-03-17 15:31:54.058949,-0.03,0.0,-0.36,0.001090830782496456,0.004363323129985824,-0.006544984694978736
2025-03-17 15:31:54.119708,-0.03,0.11,-0.38,-0.001090830782496456,-0.001090830782496456,-0.002181661564992912
2025-03-17 15:31:54.180284,-0.05,0.0,-0.39,-0.001090830782496456,0.002181661564992912,0.001090830782496456
2025-03-17 15:31:54.240647,-0.01,0.02,-0.37,-0.001090830782496456,-0.001090830782496456,0.0
2025-03-17 15:31:54.300656,-0.05,0.04,-0.33,0.0,0.002181661564992912,0.0
2025-03-17 15:31:54.361525,-0.03,-0.01,-0.36,0.001090830782496456,0.001090830782496456,-0.003272492347489368
2025-03-17 15:31:54.422125,-0.02,0.03,-0.36,-0.002181661564992912,-0.001090830782496456,0.001090830782496456
2025-03-17 15:31:54.482644,-0.07,0.0,-0.36,-0.001090830782496456,0.002181661564992912,0.0
2025-03-17 15:31:54.543191,-0.02,-0.01,-0.35000000000000003,-0.001090830782496456,0.001090830782496456,-0.001090830782496456
2025-03-17 15:31:54.602833,-0.02,0.04,-0.38,-0.001090830782496456,0.0,0.0
2025-03-17 15:31:54.664080,-0.04,0.0,-0.35000000000000003,-0.001090830782496456,0.0,0.0
2025-03-17 15:31:54.724367,-0.03,0.01,-0.36,-0.001090830782496456,0.0,0.0
2025-03-17 15:31:54.784511,0.0,0.01,-0.37,-0.001090830782496456,0.001090830782496456,0.001090830782496456
2025-03-17 15:31:54.845016,-0.07,0.03,-0.37,-0.002181661564992912,0.004363323129985824,0.001090830782496456
2025-03-17 15:31:54.904148,-0.01,0.04,-0.36,0.13962634015954636,-0.002181661564992912,0.002181661564992912
2025-03-17 15:31:54.964427,-0.04,0.0,-0.34,-0.001090830782496456,-0.001090830782496456,0.001090830782496456
2025-03-17 15:31:55.025174,-0.05,0.03,-0.35000000000000003,0.002181661564992912,0.002181661564992912,-0.002181661564992912
2025-03-17 15:31:55.086302,-0.04,0.01,-0.37,-0.001090830782496456,0.0,-0.001090830782496456
2025-03-17 15:31:55.147026,0.0,-0.01,-0.38,0.001090830782496456,-0.001090830782496456,0.001090830782496456
2025-03-17 15:31:55.206265,-0.03,0.01,-0.42,0.001090830782496456,0.001090830782496456,0.001090830782496456
2025-03-17 15:31:55.266543,-0.04,0.02,-0.34,0.001090830782496456,0.0,0.0
2025-03-17 15:31:55.326719,-0.04,0.0,-0.39,0.13962634015954636,0.002181661564992912,0.001090830782496456
2025-03-17 15:31:55.387085,-0.01,0.03,-0.37,0.001090830782496456,0.001090830782496456,-0.002181661564992912
2025-03-17 15:31:55.448046,-0.04,0.05,-0.37,0.0,-0.002181661564992912,0.001090830782496456
2025-03-17 15:31:55.508348,0.0,0.0,-0.38,0.001090830782496456,0.0,0.001090830782496456
2025-03-17 15:31:55.568792,0.04,0.06,-0.24,0.0,-0.002181661564992912,0.0
2025-03-17 15:31:55.628811,-0.04,0.0,-0.4,-0.001090830782496456,0.002181661564992912,0.0
2025-03-17 15:31:55.689363,-0.01,0.0,-0.36,0.0,-0.004363323129985824,-0.002181661564992912
2025-03-17 15:31:55.749930,-0.02,0.03,-0.33,0.001090830782496456,0.0,-0.003272492347489368
2025-03-17 15:31:55.809170,-0.04,0.0,-0.37,0.0,-0.002181661564992912,-0.002181661564992912
2025-03-17 15:31:55.869786,-0.05,0.01,-0.24,-0.002181661564992912,0.0,0.003272492347489368
2025-03-17 15:31:55.931546,-0.04,0.01,-0.38,-0.001090830782496456,-0.001090830782496456,-0.001090830782496456
2025-03-17 15:31:55.991844,-0.06,0.01,-0.37,0.0,0.0,0.0
2025-03-17 15:31:56.052404,0.01,0.09,-0.44,-0.001090830782496456,-0.001090830782496456,0.0
2025-03-17 15:31:56.111745,-0.03,0.0,-0.33,0.0,-0.001090830782496456,-0.001090830782496456
2025-03-17 15:31:56.172150,-0.04,0.03,-0.38,0.0,0.0,0.002181661564992912
2025-03-17 15:31:56.232315,-0.06,0.02,-0.37,0.0,0.002181661564992912,-0.001090830782496456
2025-03-17 15:31:56.292695,-0.05,-0.02,-0.35000000000000003,0.0,0.001090830782496456,0.0
2025-03-17 15:31:56.353236,-0.03,0.02,-0.37,0.13962634015954636,-0.003272492347489368,0.001090830782496456
2025-03-17 15:31:56.412591,-0.02,0.0,-0.34,0.0,-0.001090830782496456,0.0
2025-03-17 15:31:56.473037,-0.04,0.01,-0.36,-0.001090830782496456,0.004363323129985824,-0.001090830782496456
2025-03-17 15:31:56.533525,-0.04,0.02,-0.36,-0.001090830782496456,-0.001090830782496456,0.001090830782496456
2025-03-17 15:31:56.593942,-0.05,0.0,-0.38,-0.001090830782496456,-0.001090830782496456,-0.002181661564992912
2025-03-17 15:31:56.654666,-0.05,0.01,-0.35000000000000003,0.0,0.0,0.0
2025-03-17 15:31:56.714021,-0.03,0.01,-0.34,0.001090830782496456,0.0,-0.001090830782496456
2025-03-17 15:31:56.774678,-0.04,0.02,-0.33,0.0,-0.003272492347489368,-0.001090830782496456
2025-03-17 15:31:56.835771,-0.03,0.02,-0.36,0.0,0.001090830782496456,-0.002181661564992912
2025-03-17 15:31:56.896620,-0.01,0.01,-0.35000000000000003,0.0,0.001090830782496456,0.0
2025-03-17 15:31:56.957274,-0.07,0.0,-0.37,-0.002181661564992912,-0.002181661564992912,0.0
2025-03-17 15:31:57.016593,-0.03,0.0,-0.38,-0.001090830782496456,0.0,-0.001090830782496456
2025-03-17 15:31:57.077015,-0.03,0.02,-0.37,0.0,0.001090830782496456,0.0
2025-03-17 15:31:57.137359,-0.06,-0.01,-0.37,-0.00545415391248228,0.007635815477475192,-0.19962203319685143
2025-03-17 15:31:57.197775,0.0,0.09,-0.39,-0.002181661564992912,0.002181661564992912,0.002181661564992912
2025-03-17 15:31:57.259089,-0.03,0.01,-0.35000000000000003,0.0,-0.003272492347489368,0.002181661564992912
2025-03-17 15:31:57.319250,-0.04,0.02,-0.34,-0.001090830782496456,-0.002181661564992912,-0.002181661564992912
2025-03-17 15:31:57.377929,0.01,0.09,-0.37,-0.004363323129985824,-0.001090830782496456,-0.04036073895236887
2025-03-17 15:31:57.438563,-0.03,0.03,-0.37,0.002181661564992912,0.0,0.026179938779914945
2025-03-17 15:31:57.499090,-0.07,0.0,-0.37,0.0,-0.001090830782496456,-0.002181661564992912
2025-03-17 15:31:57.560511,-0.06,0.08,-0.4,0.001090830782496456,-0.004363323129985824,0.04363323129985824
2025-03-17 15:31:57.620988,-0.05,0.03,-0.37,-0.001090830782496456,0.001090830782496456,-0.001090830782496456
2025-03-17 15:31:57.681334,-0.02,0.01,-0.36,0.1407171709420428,0.0,-0.001090830782496456
2025-03-17 15:31:57.741816,-0.03,0.02,-0.35000000000000003,0.001090830782496456,-0.001090830782496456,0.001090830782496456
2025-03-17 15:31:57.802100,-0.05,0.02,-0.4,0.0,-0.001090830782496456,0.002181661564992912
2025-03-17 15:31:57.862599,-0.02,0.03,-0.36,0.13962634015954636,0.0,-0.001090830782496456
2025-03-17 15:31:57.922102,-0.05,0.01,-0.37,0.0,0.0,0.001090830782496456
2025-03-17 15:31:57.982516,-0.06,0.01,-0.39,0.003272492347489368,-0.004363323129985824,0.0
2025-03-17 15:31:58.043038,-0.03,0.25,-0.03,-0.025089107997418487,0.03490658503988659,0.03490658503988659
2025-03-17 15:31:58.104112,-0.05,-0.09,-0.51,-0.002181661564992912,0.003272492347489368,0.007635815477475192
2025-03-17 15:31:58.164920,-0.04,0.03,-0.4,0.0,0.0,0.0
2025-03-17 15:31:58.224907,-0.04,0.02,-0.4,0.001090830782496456,-0.001090830782496456,0.0
2025-03-17 15:31:58.286063,-0.04,0.02,-0.35000000000000003,0.001090830782496456,0.002181661564992912,-0.002181661564992912
2025-03-17 15:31:58.347748,-0.07,0.0,-0.4,-0.001090830782496456,0.001090830782496456,0.0
2025-03-17 15:31:58.408133,0.01,-0.01,-0.42,-0.002181661564992912,0.0,0.0
2025-03-17 15:31:58.468784,-0.06,0.04,-0.34,-0.001090830782496456,0.001090830782496456,0.001090830782496456
2025-03-17 15:31:58.528616,-0.04,0.0,-0.38,0.0,0.0,0.001090830782496456
2025-03-17 15:31:58.589131,-0.03,0.0,-0.37,-0.001090830782496456,-0.002181661564992912,0.0
2025-03-17 15:31:58.649434,-0.01,0.02,-0.37,0.0,-0.002181661564992912,-0.001090830782496456
2025-03-17 15:31:58.710645,-0.04,0.0,-0.36,0.001090830782496456,0.0,-0.001090830782496456
2025-03-17 15:31:58.771662,-0.03,0.02,-0.37,0.001090830782496456,0.001090830782496456,0.001090830782496456
2025-03-17 15:31:58.831113,-0.03,0.0,-0.35000000000000003,-0.002181661564992912,0.0,-0.002181661564992912
2025-03-17 15:31:58.891734,-0.05,0.02,-0.34,0.0,-0.001090830782496456,0.0
2025-03-17 15:31:58.952092,-0.03,0.0,-0.37,0.001090830782496456,-0.003272492347489368,-0.001090830782496456
2025-03-17 15:31:59.012502,-0.01,0.01,-0.08,-0.002181661564992912,-0.002181661564992912,0.001090830782496456
2025-03-17 15:31:59.072645,-0.05,0.03,-0.37,-0.001090830782496456,-0.002181661564992912,-0.003272492347489368
2025-03-17 15:31:59.132497,-0.02,0.02,-0.38,-0.001090830782496456,0.0,0.013089969389957472
2025-03-17 15:31:59.193014,-0.04,0.02,-0.32,0.0,0.001090830782496456,0.002181661564992912
2025-03-17 15:31:59.254621,-0.05,0.0,-0.37,0.0,0.002181661564992912,-0.001090830782496456
2025-03-17 15:31:59.317162,-0.07,0.02,-0.38,0.0,0.0,0.0
2025-03-17 15:31:59.376904,-0.01,0.02,-0.36,0.0,0.0,0.0
2025-03-17 15:31:59.437723,-0.05,0.04,-0.36,-0.001090830782496456,0.001090830782496456,-0.001090830782496456
2025-03-17 15:31:59.498471,-0.04,0.03,-0.37,-0.002181661564992912,0.001090830782496456,0.0
2025-03-17 15:31:59.559957,-0.02,0.03,-0.36,0.0,0.001090830782496456,-0.001090830782496456
2025-03-17 15:31:59.621416,-0.04,0.03,-0.37,-0.001090830782496456,0.0,0.0
2025-03-17 15:31:59.681887,-0.05,0.0,-0.41000000000000003,0.0,-0.004363323129985824,0.001090830782496456
2025-03-17 15:31:59.743445,0.0,0.02,-0.36,0.001090830782496456,0.0,-0.001090830782496456
2025-03-17 15:31:59.804199,-0.05,0.02,-0.36,0.0,0.002181661564992912,0.001090830782496456
2025-03-17 15:31:59.864968,-0.05,0.02,-0.39,-0.002181661564992912,-0.001090830782496456,0.0
2025-03-17 15:31:59.926095,-0.03,0.05,-0.35000000000000003,-0.002181661564992912,0.0,0.0
2025-03-17 15:31:59.985686,-0.04,0.0,-0.33,-0.001090830782496456,0.0,0.001090830782496456
2025-03-17 15:32:00.046028,-0.04,0.03,-0.36,-0.002181661564992912,0.0,0.0
2025-03-17 15:32:00.106503,-0.02,0.01,-0.38,0.0,0.0,0.001090830782496456
2025-03-17 15:32:00.166941,-0.06,0.0,-0.39,0.0,0.001090830782496456,-0.001090830782496456
2025-03-17 15:32:00.228333,-0.03,0.04,-0.35000000000000003,0.0,0.001090830782496456,0.001090830782496456
2025-03-17 15:32:00.288112,-0.02,0.0,-0.37,-0.001090830782496456,0.001090830782496456,0.001090830782496456
2025-03-17 15:32:00.348898,-0.02,0.01,-0.33,-0.003272492347489368,0.002181661564992912,0.0
2025-03-17 15:32:00.409280,-0.03,0.02,-0.36,0.002181661564992912,-0.001090830782496456,-0.001090830782496456
2025-03-17 15:32:00.469706,-0.03,0.01,-0.39,0.001090830782496456,-0.001090830782496456,0.001090830782496456
2025-03-17 15:32:00.530145,-0.03,-0.02,-0.35000000000000003,0.001090830782496456,0.004363323129985824,-0.002181661564992912
2025-03-17 15:32:00.589794,-0.02,0.04,-0.33,0.002181661564992912,0.0,0.0
2025-03-17 15:32:00.650479,-0.03,0.0,-0.33,0.0,0.004363323129985824,0.0
2025-03-17 15:32:00.711520,-0.05,0.04,-0.38,-0.001090830782496456,0.0,0.0
2025-03-17 15:32:00.772696,-0.03,0.01,-0.36,0.0,0.0,-0.001090830782496456
2025-03-17 15:32:00.833295,-0.05,0.01,-0.39,-0.001090830782496456,-0.001090830782496456,0.002181661564992912
2025-03-17 15:32:00.892550,-0.04,0.03,-0.35000000000000003,-0.001090830782496456,0.003272492347489368,-0.002181661564992912
2025-03-17 15:32:00.953055,-0.04,0.03,-0.32,0.002181661564992912,0.0,-0.002181661564992912
2025-03-17 15:32:01.013353,-0.04,0.02,-0.36,0.001090830782496456,0.001090830782496456,0.002181661564992912
2025-03-17 15:32:01.073738,-0.02,0.02,-0.39,0.0,0.001090830782496456,-0.001090830782496456
2025-03-17 15:32:01.134682,-0.05,0.0,-0.36,0.001090830782496456,0.0,0.002181661564992912
2025-03-17 15:32:01.195018,-0.05,0.01,-0.38,-0.001090830782496456,-0.001090830782496456,0.0
2025-03-17 15:32:01.255572,-0.04,0.01,-0.41000000000000003,0.0,0.002181661564992912,0.001090830782496456
2025-03-17 15:32:01.315971,-0.05,0.02,-0.39,0.0,0.001090830782496456,0.002181661564992912
2025-03-17 15:32:01.376334,-0.05,0.01,-0.39,0.0,-0.002181661564992912,0.0
2025-03-17 15:32:01.436855,-0.01,0.01,-0.36,0.0,0.003272492347489368,0.001090830782496456
2025-03-17 15:32:01.496124,-0.03,0.0,-0.36,0.0,0.001090830782496456,-0.001090830782496456
2025-03-17 15:32:01.557192,-0.02,0.02,-0.33,0.002181661564992912,-0.002181661564992912,-0.002181661564992912
2025-03-17 15:32:01.618276,-0.04,0.02,-0.36,0.0,0.0,0.0
2025-03-17 15:32:01.678428,-0.04,0.01,-0.39,0.002181661564992912,0.002181661564992912,0.001090830782496456
2025-03-17 15:32:01.738866,-0.06,0.04,-0.39,-0.001090830782496456,-0.001090830782496456,0.002181661564992912
2025-03-17 15:32:01.798066,-0.05,0.02,-0.35000000000000003,0.001090830782496456,0.0,0.0
2025-03-17 15:32:01.858673,-0.03,0.02,-0.37,0.0,-0.001090830782496456,-0.002181661564992912
2025-03-17 15:32:01.918990,-0.03,0.01,-0.37,0.0,-0.001090830782496456,0.0
2025-03-17 15:32:01.980437,-0.02,0.0,-0.38,-0.002181661564992912,0.001090830782496456,0.0
2025-03-17 15:32:02.041571,-0.07,0.02,-0.36,0.0,0.0,-0.001090830782496456
2025-03-17 15:32:02.101263,-0.04,0.01,-0.35000000000000003,-0.001090830782496456,-0.004363323129985824,0.0
2025-03-17 15:32:02.161655,-0.04,0.03,-0.36,0.002181661564992912,0.0,0.002181661564992912
2025-03-17 15:32:02.222003,-0.04,0.0,-0.36,-0.001090830782496456,0.0,0.001090830782496456
2025-03-17 15:32:02.283128,-0.04,0.03,-0.37,-0.002181661564992912,-0.003272492347489368,0.0
2025-03-17 15:32:02.345731,-0.06,0.0,-0.39,-0.002181661564992912,0.0,-0.004363323129985824
2025-03-17 15:32:02.406356,-0.03,0.03,-0.36,-0.001090830782496456,0.003272492347489368,0.0
2025-03-17 15:32:02.466817,-0.06,0.02,-0.37,0.001090830782496456,-0.002181661564992912,0.0
2025-03-17 15:32:02.527298,-0.03,0.03,-0.37,0.0,-0.001090830782496456,0.0
2025-03-17 15:32:02.588237,-0.03,0.01,-0.36,0.002181661564992912,-0.002181661564992912,0.001090830782496456
2025-03-17 15:32:02.648101,-0.04,0.0,-0.35000000000000003,-0.001090830782496456,0.0,0.002181661564992912
2025-03-17 15:32:02.708912,-0.04,0.02,-0.34,0.001090830782496456,-0.001090830782496456,-0.001090830782496456
2025-03-17 15:32:02.769237,-0.03,0.0,-0.35000000000000003,-0.001090830782496456,0.0,0.001090830782496456
2025-03-17 15:32:02.829587,-0.03,0.03,-0.36,-0.001090830782496456,0.0,0.0
2025-03-17 15:32:02.890793,-0.04,0.0,-0.35000000000000003,0.0,0.0,-0.001090830782496456
2025-03-17 15:32:02.950956,-0.02,0.03,-0.39,0.001090830782496456,0.0,0.001090830782496456
2025-03-17 15:32:03.011788,-0.02,0.04,-0.34,0.001090830782496456,0.0,0.002181661564992912
2025-03-17 15:32:03.071916,-0.06,0.0,-0.29,0.001090830782496456,0.0,-0.002181661564992912
2025-03-17 15:32:03.132388,-0.07,0.02,-0.37,0.001090830782496456,0.0,0.0
2025-03-17 15:32:03.193343,-0.02,0.03,-0.36,0.001090830782496456,0.002181661564992912,0.0
2025-03-17 15:32:03.253739,-0.06,0.03,-0.35000000000000003,0.0,-0.001090830782496456,0.0
2025-03-17 15:32:03.314000,-0.06,0.01,-0.38,0.001090830782496456,-0.001090830782496456,0.001090830782496456
2025-03-17 15:32:03.374138,-0.04,0.04,-0.34,0.003272492347489368,0.0,0.0
2025-03-17 15:32:03.434296,-0.06,0.02,-0.39,0.0,-0.001090830782496456,-0.001090830782496456
2025-03-17 15:32:03.494634,-0.03,0.01,-0.34,0.001090830782496456,-0.001090830782496456,0.002181661564992912
2025-03-17 15:32:03.553807,-0.03,0.02,-0.35000000000000003,0.001090830782496456,-0.002181661564992912,0.0
2025-03-17 15:32:03.614663,-0.04,0.0,-0.35000000000000003,-0.001090830782496456,0.0,0.0
2025-03-17 15:32:03.674730,-0.04,0.01,-0.38,0.002181661564992912,-0.003272492347489368,0.0
2025-03-17 15:32:03.735383,-0.01,0.01,-0.39,-0.001090830782496456,0.001090830782496456,0.0
2025-03-17 15:32:03.795727,-0.05,0.02,-0.36,0.002181661564992912,0.0,0.0
2025-03-17 15:32:03.855488,-0.01,0.01,-0.36,0.001090830782496456,0.0,0.0
2025-03-17 15:32:03.916758,-0.02,0.01,-0.35000000000000003,0.0,0.0,0.002181661564992912
2025-03-17 15:32:03.976974,-0.07,0.03,-0.36,-0.001090830782496456,-0.004363323129985824,0.001090830782496456
2025-03-17 15:32:04.036915,-0.03,0.03,-0.36,0.002181661564992912,0.001090830782496456,0.001090830782496456
2025-03-17 15:32:04.097191,-0.02,0.03,-0.35000000000000003,-0.002181661564992912,0.003272492347489368,0.0
2025-03-17 15:32:04.156627,-0.05,0.01,-0.36,0.0,0.0,0.0
2025-03-17 15:32:04.217084,-0.02,0.0,-0.36,0.0,0.001090830782496456,-0.001090830782496456
2025-03-17 15:32:04.278288,-0.07,0.01,-0.36,0.001090830782496456,-0.001090830782496456,-0.001090830782496456
2025-03-17 15:32:04.339578,-0.03,0.0,-0.39,-0.001090830782496456,0.0,0.001090830782496456
2025-03-17 15:32:04.401060,-0.04,0.02,-0.39,-0.001090830782496456,0.0,0.003272492347489368
2025-03-17 15:32:04.462504,-0.03,0.0,-0.36,-0.001090830782496456,-0.002181661564992912,0.0
2025-03-17 15:32:04.523130,-0.06,0.03,-0.38,-0.001090830782496456,0.002181661564992912,-0.001090830782496456
2025-03-17 15:32:04.583508,0.0,0.01,-0.32,-0.001090830782496456,0.0,0.0
2025-03-17 15:32:04.643925,-0.05,0.0,-0.38,-0.002181661564992912,0.001090830782496456,0.0
2025-03-17 15:32:04.705267,-0.02,0.0,-0.37,-0.001090830782496456,0.0,0.0
2025-03-17 15:32:04.764867,-0.04,0.01,-0.35000000000000003,0.0,-0.001090830782496456,-0.002181661564992912
2025-03-17 15:32:04.825572,-0.03,0.0,-0.35000000000000003,-0.001090830782496456,0.001090830782496456,0.0
2025-03-17 15:32:04.886160,-0.01,0.0,-0.34,-0.001090830782496456,0.003272492347489368,0.0
2025-03-17 15:32:04.946685,-0.03,0.03,-0.39,0.13962634015954636,-0.001090830782496456,0.0
2025-03-17 15:32:05.007319,-0.04,0.01,-0.35000000000000003,0.0,0.001090830782496456,-0.002181661564992912
2025-03-17 15:32:05.066650,-0.02,0.01,-0.35000000000000003,0.0,0.001090830782496456,0.001090830782496456
2025-03-17 15:32:05.127474,-0.04,0.02,-0.33,0.0,0.003272492347489368,-0.001090830782496456
2025-03-17 15:32:05.188631,-0.02,0.02,-0.36,0.0,0.001090830782496456,-0.001090830782496456
2025-03-17 15:32:05.249064,-0.07,0.03,-0.37,0.001090830782496456,-0.003272492347489368,0.0
2025-03-17 15:32:05.310504,-0.04,0.02,-0.37,0.002181661564992912,0.001090830782496456,-0.001090830782496456
2025-03-17 15:32:05.369817,-0.04,0.01,-0.35000000000000003,-0.001090830782496456,0.0,0.001090830782496456
2025-03-17 15:32:05.430602,-0.03,0.02,-0.37,0.0,0.002181661564992912,0.0
2025-03-17 15:32:05.490953,-0.02,0.01,-0.45,0.0,0.0,0.002181661564992912
2025-03-17 15:32:05.552102,-0.03,0.02,-0.42,-0.001090830782496456,0.0,0.001090830782496456
2025-03-17 15:32:05.613533,-0.03,0.01,-0.36,-0.001090830782496456,0.001090830782496456,-0.001090830782496456
2025-03-17 15:32:05.672965,-0.06,0.04,-0.37,0.001090830782496456,-0.002181661564992912,0.001090830782496456
2025-03-17 15:32:05.733654,-0.06,0.0,-0.35000000000000003,-0.001090830782496456,-0.001090830782496456,0.0
2025-03-17 15:32:05.794043,-0.04,0.04,-0.38,-0.002181661564992912,-0.001090830782496456,0.001090830782496456
2025-03-17 15:32:05.855238,-0.01,0.0,-0.39,0.001090830782496456,-0.001090830782496456,0.001090830782496456
2025-03-17 15:32:05.916102,-0.05,0.03,-0.38,0.001090830782496456,-0.002181661564992912,0.001090830782496456
2025-03-17 15:32:05.975976,-0.03,0.02,-0.37,-0.001090830782496456,0.0,0.002181661564992912
2025-03-17 15:32:06.036179,-0.01,0.02,-0.37,-0.001090830782496456,0.0,0.0
2025-03-17 15:32:06.096466,-0.05,0.0,-0.33,0.0,-0.003272492347489368,-0.001090830782496456
2025-03-17 15:32:06.156555,-0.04,0.03,-0.39,0.0,-0.001090830782496456,0.001090830782496456
2025-03-17 15:32:06.217276,-0.02,0.03,-0.36,-0.001090830782496456,-0.003272492347489368,0.001090830782496456
2025-03-17 15:32:06.278045,-0.06,0.02,-0.37,0.001090830782496456,-0.001090830782496456,0.002181661564992912
2025-03-17 15:32:06.339562,-0.03,0.03,-0.35000000000000003,-0.001090830782496456,-0.001090830782496456,0.0
2025-03-17 15:32:06.400301,-0.02,0.02,-0.36,0.0,0.001090830782496456,0.0
2025-03-17 15:32:06.461039,-0.03,0.0,-0.38,-0.001090830782496456,-0.001090830782496456,0.0
2025-03-17 15:32:06.520957,-0.06,0.04,-0.38,0.0,0.0,0.0
2025-03-17 15:32:06.583353,-0.03,0.02,-0.34,0.001090830782496456,-0.003272492347489368,0.001090830782496456
2025-03-17 15:32:06.644944,-0.03,0.01,-0.38,0.001090830782496456,0.0,0.001090830782496456
2025-03-17 15:32:06.705253,-0.07,0.03,-0.36,0.0,0.001090830782496456,-0.001090830782496456
2025-03-17 15:32:06.765882,-0.03,0.01,-0.33,0.0,0.004363323129985824,-0.001090830782496456
2025-03-17 15:32:06.825254,-0.05,0.02,-0.34,0.0,0.001090830782496456,0.0
2025-03-17 15:32:06.885983,-0.03,0.0,-0.37,0.001090830782496456,0.003272492347489368,-0.001090830782496456
2025-03-17 15:32:06.946393,-0.06,0.03,-0.37,0.001090830782496456,-0.002181661564992912,0.001090830782496456
2025-03-17 15:32:07.006922,-0.04,0.0,-0.39,0.001090830782496456,-0.00545415391248228,0.0
2025-03-17 15:32:07.067303,-0.03,0.03,-0.35000000000000003,-0.001090830782496456,-0.001090830782496456,0.002181661564992912
2025-03-17 15:32:07.127509,-0.04,0.0,-0.37,-0.001090830782496456,-0.002181661564992912,0.001090830782496456
2025-03-17 15:32:07.188722,-0.06,0.01,-0.35000000000000003,-0.002181661564992912,-0.001090830782496456,0.0
2025-03-17 15:32:07.249271,-0.01,0.01,-0.38,-0.001090830782496456,-0.003272492347489368,0.0
2025-03-17 15:32:07.309790,-0.07,0.03,-0.39,0.002181661564992912,-0.002181661564992912,0.001090830782496456
2025-03-17 15:32:07.370628,-0.05,0.0,-0.37,0.001090830782496456,-0.001090830782496456,0.001090830782496456
2025-03-17 15:32:07.429427,-0.06,0.04,-0.37,-0.001090830782496456,0.0,0.001090830782496456
2025-03-17 15:32:07.489807,-0.02,0.01,-0.43,0.0,0.003272492347489368,-0.001090830782496456
2025-03-17 15:32:07.550156,-0.04,0.03,-0.31,0.001090830782496456,-0.001090830782496456,0.002181661564992912
2025-03-17 15:32:07.610679,-0.04,0.02,-0.4,-0.001090830782496456,-0.001090830782496456,-0.002181661564992912
2025-03-17 15:32:07.671154,-0.03,0.0,-0.35000000000000003,0.001090830782496456,-0.004363323129985824,0.0
2025-03-17 15:32:07.730092,-0.03,0.0,-0.37,0.001090830782496456,-0.001090830782496456,0.0
2025-03-17 15:32:07.790864,-0.03,0.03,-0.43,0.003272492347489368,-0.002181661564992912,0.0
2025-03-17 15:32:07.851304,-0.03,0.0,-0.37,0.001090830782496456,-0.001090830782496456,0.0
2025-03-17 15:32:07.912139,-0.05,0.04,-0.36,0.002181661564992912,-0.002181661564992912,-0.001090830782496456
2025-03-17 15:32:07.973439,-0.01,0.02,-0.37,0.001090830782496456,-0.001090830782496456,-0.001090830782496456
2025-03-17 15:32:08.032730,-0.04,0.02,-0.34,0.0,0.001090830782496456,0.0
2025-03-17 15:32:08.093425,-0.05,0.01,-0.33,0.0,0.001090830782496456,-0.001090830782496456
2025-03-17 15:32:08.154033,-0.06,0.01,-0.36,-0.001090830782496456,0.002181661564992912,0.0
2025-03-17 15:32:08.214235,-0.06,0.0,-0.39,0.0,0.003272492347489368,0.0
2025-03-17 15:32:08.274649,-0.04,0.02,-0.38,-0.001090830782496456,0.001090830782496456,-0.001090830782496456
2025-03-17 15:32:08.333994,-0.02,0.02,-0.33,0.0,0.0,0.0
2025-03-17 15:32:08.395240,0.0,0.06,-0.29,0.002181661564992912,-0.008726646259971648,0.011999138607461015
2025-03-17 15:32:08.455888,-0.02,0.02,-0.76,-0.001090830782496456,-0.001090830782496456,0.0
2025-03-17 15:32:08.516059,-0.02,0.03,-0.25,0.0,0.004363323129985824,0.001090830782496456
2025-03-17 15:32:08.576388,-0.04,0.01,-0.3,-0.001090830782496456,-0.003272492347489368,0.001090830782496456
2025-03-17 15:32:08.635784,-0.02,0.03,-0.33,0.0,-0.001090830782496456,-0.001090830782496456
2025-03-17 15:32:08.697823,-0.04,0.02,-0.38,-0.003272492347489368,0.001090830782496456,0.002181661564992912
2025-03-17 15:32:08.758033,-0.04,0.01,-0.37,-0.002181661564992912,0.0,0.0
2025-03-17 15:32:08.818258,-0.02,0.01,-0.37,0.0,-0.001090830782496456,-0.002181661564992912
2025-03-17 15:32:08.879137,-0.04,0.02,-0.35000000000000003,0.001090830782496456,0.002181661564992912,0.0
2025-03-17 15:32:08.939565,-0.04,0.01,-0.36,-0.001090830782496456,0.0,0.002181661564992912
2025-03-17 15:32:08.999834,-0.03,0.01,-0.36,0.001090830782496456,0.001090830782496456,-0.001090830782496456
2025-03-17 15:32:09.060147,-0.04,0.06,-0.35000000000000003,0.002181661564992912,-0.001090830782496456,0.001090830782496456
2025-03-17 15:32:09.120053,-0.03,0.01,-0.35000000000000003,0.001090830782496456,0.002181661564992912,0.001090830782496456
2025-03-17 15:32:09.180489,-0.01,0.04,-0.18,-0.002181661564992912,0.001090830782496456,0.0
2025-03-17 15:32:09.241107,-0.04,0.01,-0.41000000000000003,0.0,0.003272492347489368,-0.001090830782496456
2025-03-17 15:32:09.301978,-0.01,0.04,-0.36,0.0,-0.001090830782496456,-0.003272492347489368
2025-03-17 15:32:09.362077,-0.04,0.01,-0.35000000000000003,0.0,-0.003272492347489368,0.0
2025-03-17 15:32:09.422544,-0.04,0.04,-0.3,0.0,0.002181661564992912,-0.001090830782496456
2025-03-17 15:32:09.483067,-0.04,-0.01,-0.38,-0.001090830782496456,0.0,0.002181661564992912
2025-03-17 15:32:09.541946,-0.02,0.03,-0.37,0.0,0.001090830782496456,-0.001090830782496456
2025-03-17 15:32:09.602863,-0.04,-0.01,-0.35000000000000003,0.003272492347489368,0.0,0.001090830782496456
2025-03-17 15:32:09.664340,-0.04,0.05,-0.37,-0.001090830782496456,0.003272492347489368,0.002181661564992912
2025-03-17 15:32:09.724818,-0.04,0.0,-0.4,0.001090830782496456,0.0,0.0
2025-03-17 15:32:09.785317,-0.03,0.03,-0.38,0.002181661564992912,-0.002181661564992912,0.0
2025-03-17 15:32:09.844202,-0.04,0.02,-0.34,0.0,0.0,0.0
2025-03-17 15:32:09.904814,-0.04,0.02,-0.35000000000000003,0.0,0.002181661564992912,0.0
2025-03-17 15:32:09.965376,-0.05,0.03,-0.36,0.002181661564992912,0.001090830782496456,0.001090830782496456
2025-03-17 15:32:10.026118,-0.03,0.01,-0.38,0.002181661564992912,0.002181661564992912,0.0
2025-03-17 15:32:10.087104,-0.04,0.01,-0.36,-0.001090830782496456,-0.002181661564992912,0.0
2025-03-17 15:32:10.145806,0.48,0.87,0.0,-0.1636246173744684,0.008726646259971648,-0.9828385350293068
2025-03-17 15:32:10.204514,1.8,0.14,-0.49,0.032724923474893676,-0.026179938779914945,0.1636246173744684
2025-03-17 15:32:10.263933,4.83,0.02,2.96,-0.3043417883165112,-0.0719948316447661,-0.6359543461954338
2025-03-17 15:32:10.324620,0.75,-0.58,1.9000000000000001,-1.124646536753846,0.6206827152404835,0.9250245035569946
2025-03-17 15:32:10.385088,0.98,-1.47,-1.48,0.7613998861825263,-0.3174317577064687,1.351539339513109
2025-03-17 15:32:10.444943,1.48,-1.1400000000000001,-2.32,1.3319043854281727,-2.4772767070494517,1.2239121379610236
2025-03-17 15:32:10.503790,2.32,2.86,-0.28,1.3559026626430948,-4.101523742186674,1.5784321422723717
2025-03-17 15:32:10.563524,2.02,0.44,-2.83,0.9708393964218458,-2.7510752334560618,-1.0297442586766545
2025-03-17 15:32:10.624760,1.52,1.9000000000000001,-0.65,0.41560652813114973,-3.615013213193255,2.5132741228718345
2025-03-17 15:32:10.685169,-0.66,-0.54,-2.16,3.8811759241223904,-0.729765793490129,0.9675669040743564
2025-03-17 15:32:10.745747,1.08,0.76,-0.79,1.1333731830138178,-2.9943304979527716,3.080506129769992
2025-03-17 15:32:10.805224,-2.62,1.47,-1.08,0.06654067773228381,-3.162318438457226,0.545415391248228
2025-03-17 15:32:10.864952,0.33,1.46,-1.76,2.189297380470387,-2.390010244449735,0.5050546522958591
2025-03-17 15:32:10.926024,-3.41,0.23,1.16,2.7456210795435796,-2.7347127717186153,0.42542400517361784
2025-03-17 15:32:10.986697,-1.48,0.74,1.9100000000000001,0.7603090554000298,-1.3231777391682011,-1.44971410993779
2025-03-17 15:32:11.047222,-0.62,2.18,0.21,-0.01090830782496456,-0.07308566242726255,-1.0733774899765127
2025-03-17 15:32:11.105767,-1.34,-1.07,-0.43,-0.0916297857297023,0.21380283336930536,-1.557706357404939
2025-03-17 15:32:11.164645,-1.78,1.53,0.22,-0.37960911230876665,-0.18980455615438332,-1.038470904936626
2025-03-17 15:32:11.225119,1.41,-1.6300000000000001,-1.02,1.0755591515415055,0.08617563181722002,0.5083271446433485
2025-03-17 15:32:11.285720,0.38,0.38,-0.4,0.33488505022641196,-0.3436116964863836,0.007635815477475192
2025-03-17 15:32:11.346462,0.46,-0.54,-0.56,0.32834006553143325,0.3370667117914049,-0.6839509006252779
2025-03-17 15:32:11.404963,0.56,-0.08,1.3,-0.044724062082354694,1.2217304763960306,-0.18544123302439752
2025-03-17 15:32:11.463567,1.45,-1.17,-1.6300000000000001,-0.05999569303730508,-0.00545415391248228,-0.4374231437810788
2025-03-17 15:32:11.524127,1.43,0.58,-1.21,0.02181661564992912,1.7835083293817056,-1.0602875205865552
2025-03-17 15:32:11.585586,-0.22,-0.21,-1.78,-1.4126258633329105,0.9152070265145266,-1.5827954654023577
2025-03-17 15:32:11.646173,-0.34,0.7000000000000001,-1.34,-1.9700403931885995,1.8773197766764007,-2.447824275922047
2025-03-17 15:32:11.705007,-1.61,-1.74,0.1,-0.44833145160604343,0.07417649320975901,0.6752242543653062
2025-03-17 15:32:11.763625,1.36,0.8300000000000001,0.13,-0.770126532442498,1.4977106643676341,-1.3199052468207118
2025-03-17 15:32:11.822325,0.24,0.68,0.51,-0.18216874067690814,0.16471544815696484,-0.272707695624114
2025-03-17 15:32:11.882462,-1.82,-0.74,0.05,0.3239767424014474,-0.20725784867432664,0.3534291735288517
2025-03-17 15:32:11.943874,0.35000000000000003,0.06,-1.22,-0.013089969389957472,0.06435901616729091,-0.14289883250703572
2025-03-17 15:32:12.005025,-0.34,0.35000000000000003,-0.24,0.9053895494720584,-0.4036073895236887,0.6664976081053346
2025-03-17 15:32:12.063543,-0.72,-0.07,-1.08,0.6915867161027531,-0.19198621771937624,0.46469391334349025
2025-03-17 15:32:12.122220,0.2,0.31,-1.04,0.5126904677733343,-0.05999569303730508,-0.04254240051736178
2025-03-17 15:32:12.182524,-1.8800000000000001,0.34,0.07,0.3021601267515183,0.22362031041177347,0.14835298641951802
2025-03-17 15:32:12.243015,-0.55,-1.48,-1.34,0.13744467859455345,0.16471544815696484,0.5225079448158024
2025-03-17 15:32:12.303511,1.85,-0.49,-1.79,-0.45487643630102215,0.6185010536754906,0.2530727415391778
2025-03-17 15:32:12.362843,0.03,-0.5700000000000001,-0.22,-1.5587971881874356,0.605411084285533,0.025089107997418487
2025-03-17 15:32:12.422433,-0.07,-1.08,-0.45,-1.2064588454410803,0.24652775684419906,0.5105088062083414
2025-03-17 15:32:12.483412,1.57,2.16,-0.71,-0.7003133623627247,0.5661411761156606,-0.017453292519943295
2025-03-17 15:32:12.543848,1.4000000000000001,0.76,-2.12,-0.5672320068981571,-0.3239767424014474,-0.21489366415180183
2025-03-17 15:32:12.604411,1.32,-1.79,-1.49,-0.9795660426818175,-0.2694352032766246,0.0545415391248228
2025-03-17 15:32:12.662797,0.93,0.86,0.49,-0.4919646829059016,-0.008726646259971648,-1.2195488148310378
2025-03-17 15:32:12.721505,0.47000000000000003,0.21,-0.62,-0.07090400086226964,-0.9653852425093635,-0.7428557628800865
2025-03-17 15:32:12.781562,-2.92,-1.83,0.12,-0.16253378659197193,-0.9108437033845407,0.1810779098944117
2025-03-17 15:32:12.842004,-0.5700000000000001,-1.42,0.03,-1.0602875205865552,0.09381144729469522,-0.07963064712224129
2025-03-17 15:32:12.902889,0.27,0.2,-0.45,-0.6610434541928523,0.12326387842209953,-0.06654067773228381
2025-03-17 15:32:12.963774,0.43,0.96,-0.18,-0.2007128639793479,-0.2977968036215325,0.03381575425739013
2025-03-17 15:32:13.022316,0.24,0.42,0.2,0.346884188833873,-0.22471114119426994,-0.6621342849753488
2025-03-17 15:32:13.081391,1.6600000000000001,-326.69,-1.51,0.5912302841130791,-1.1682797680537043,-0.10253809355466686
2025-03-17 15:32:13.141750,-1.29,-1.48,0.55,0.17889624832941878,0.08617563181722002,-0.3097959422289935
2025-03-17 15:32:13.202300,-0.27,-1.48,-0.84,-0.4461497900410505,0.26398104936414235,-0.4930555136883981
2025-03-17 15:32:13.263425,1.47,-0.58,-0.99,0.008726646259971648,0.49960049838337683,0.6643159465403417
2025-03-17 15:32:13.322000,-0.56,-0.3,-0.27,-0.10253809355466686,0.2007128639793479,-0.2683443724941282
2025-03-17 15:32:13.380697,-0.35000000000000003,0.5700000000000001,-0.61,0.0545415391248228,-0.8355763793922852,-0.2814343418840856
2025-03-17 15:32:13.440854,-0.88,-0.23,0.46,0.3785182815262702,-0.9566585962493919,-0.2203478180642841
2025-03-17 15:32:13.501543,1.22,-0.43,-0.91,-0.22143864884678055,-1.349357677948116,-0.17998707911191522
2025-03-17 15:32:13.562122,-1.93,-0.48,2.25,-0.2781618495365963,-0.8824821030396329,1.6558811278296202
2025-03-17 15:32:13.621583,-0.8,-0.58,-0.3,-0.21271200258680892,0.459239759431008,2.2143864884678055
2025-03-17 15:32:13.681445,0.35000000000000003,1.28,-1.52,0.17562375598192942,0.15489797111449674,2.1860248881228976
2025-03-17 15:32:13.742076,0.97,0.64,-2.02,0.4799655442984406,-1.174824752748683,0.7668540400950086
2025-03-17 15:32:13.802387,0.44,0.23,-0.88,0.4701480672559725,-1.0395617357191225,0.09381144729469522
2025-03-17 15:32:13.862933,-1.6400000000000001,-0.73,-0.25,0.5835944686356039,-1.4780757102826978,-0.03599741582238305
2025-03-17 15:32:13.921383,-1.9100000000000001,-0.09,-0.41000000000000003,0.31634092692397225,-0.02945243112740431,0.36324665057131983
2025-03-17 15:32:13.979893,0.14,0.54,-1.76,0.17016960206944712,0.6294093615004551,-0.6926775468852495
2025-03-17 15:32:14.040174,1.68,1.86,-0.9500000000000001,1.1311915214488248,1.2664545384783854,-1.2282754610910094
2025-03-17 15:32:14.101291,1.97,0.63,-2.95,0.4886921905584123,0.385063266221249,-2.3027437818500185
2025-03-17 15:32:14.161984,1.71,-1.6600000000000001,-1.45,-1.0210176124166828,0.5039638215133626,-2.6790804018112957
2025-03-17 15:32:14.220861,-2.39,-1.74,0.14,-0.8912087492996045,-1.5849771269673505,-1.5947946040098187
2025-03-17 15:32:14.279426,-1.12,-2.48,-0.12,-1.5697054960124002,0.24652775684419906,-1.4453507868078042
2025-03-17 15:32:14.338008,-5.7,0.21,4.15,1.31117860056074,0.7875798249624412,-1.249001245958442
2025-03-17 15:32:14.398501,-0.37,0.72,2.0300000000000002,1.5544338650574498,0.459239759431008,-0.8879362569521152
2025-03-17 15:32:14.459516,-1.55,0.37,-1.36,0.07308566242726255,1.0973757671914346,-1.102829921103917
2025-03-17 15:32:14.520220,-0.22,0.03,-0.64,1.7376934365168544,0.6719517620178169,-0.08399397025222712
2025-03-17 15:32:14.580095,1.25,-0.31,0.01,0.3741549583962844,0.07308566242726255,-0.08399397025222712
2025-03-17 15:32:14.639662,0.53,-0.02,-2.34,0.12326387842209953,0.6904958853202566,-0.9577494270318884
2025-03-17 15:32:14.700140,-2.09,-0.66,0.74,-0.04690572364734761,1.5729779883598896,-0.5737769915931359
2025-03-17 15:32:14.760542,2.0,-0.39,-3.1,-0.6381360077604268,2.043126055615862,-1.3242685699506975
2025-03-17 15:32:14.821169,-1.16,-0.47000000000000003,-0.32,-1.3089969389957472,1.5969762655748114,-0.7046766854927106
2025-03-17 15:32:14.880528,-1.27,0.31,-1.01,-0.619591884457987,0.3861540970037454,-0.5170537909033202
2025-03-17 15:32:14.940192,-0.8200000000000001,-1.97,0.38,0.9446594576419308,0.18435040224190105,-1.174824752748683
2025-03-17 15:32:15.001030,-0.6900000000000001,-4.3,-12.39,1.1126473981463851,-1.215185491701052,1.3722651243805417
2025-03-17 15:32:15.061896,0.72,2.9,0.62,-1.8576848225914646,8.743008721709094,0.07635815477475191
2025-03-17 15:32:15.122832,0.49,-2.24,-3.08,0.16907877128695067,-0.7286749627076325,-1.0482883819790942
2025-03-17 15:32:15.181487,3.15,-3.86,6.890000000000001,2.8667032964006864,8.305585577928015,1.325359400733194
2025-03-17 15:32:15.240200,0.39,4.7700000000000005,-4.37,-2.9386981280454525,2.067124332830784,0.06435901616729091
2025-03-17 15:32:15.300764,-1.33,-0.93,3.86,-0.9228428419920017,-0.9457502884244273,0.9490227807719167
2025-03-17 15:32:15.361195,-0.47000000000000003,-0.01,-1.86,-1.6187928812247407,-0.5486878835957173,0.001090830782496456
2025-03-17 15:32:15.422352,0.8200000000000001,0.48,-2.12,-0.6065019150680295,-1.3788101090755203,0.4461497900410505
2025-03-17 15:32:15.481997,-0.53,0.99,-0.66,0.272707695624114,-0.13853550937704992,0.6032294227205401
2025-03-17 15:32:15.540714,-0.91,4.2,0.56,0.2879793265790644,-0.7308566242726255,0.7853981633974483
2025-03-17 15:32:15.601009,-0.45,0.98,0.37,-0.6992225315802283,-0.48651052899341934,-1.2697270308258748
2025-03-17 15:32:15.661519,1.9000000000000001,-2.11,0.42,-0.3741549583962844,0.14726215563702155,-0.9130253649495337
2025-03-17 15:32:15.721986,-0.4,1.07,2.58,-0.8028514559173916,0.7134033317526822,-0.5748678223756323
2025-03-17 15:32:15.780889,2.2800000000000002,1.75,-0.72,-1.5042556490626129,1.5784321422723717,-1.3264502315156905
2025-03-17 15:32:15.840013,0.64,-0.72,0.8,0.4374231437810788,2.2307489502052524,-0.8235772407848243
2025-03-17 15:32:15.900213,2.22,1.47,-2.23,-2.835069203708289,2.0605793481358052,-1.3089969389957472
2025-03-17 15:32:15.961133,0.1,0.85,-2.44,0.38724492778624187,2.2078415037728267,-1.7987799603366559
2025-03-17 15:32:16.021790,1.68,-1.1300000000000001,-2.09,-2.853613327010729,0.47451139038595835,-1.27736284630335
2025-03-17 15:32:16.081559,0.8,1.56,-2.52,-0.8399397025222711,0.28034351110158917,-1.069014166846527
2025-03-17 15:32:16.140132,-0.16,-0.93,1.6500000000000001,-0.5759586531581288,-0.30325095753401476,-1.4835298641951802
2025-03-17 15:32:16.198850,5.49,0.89,-6.1000000000000005,2.4772767070494517,6.9867711618898,-0.42542400517361784
2025-03-17 15:32:16.259742,-4.99,0.3,-1.86,-0.5606870222031783,-1.6187928812247407,-0.45705809786601503
2025-03-17 15:32:16.320857,1.36,-0.4,-5.54,0.6130468997630083,0.5530512067257032,-0.20943951023931956
2025-03-17 15:32:16.381439,-1.4000000000000001,-0.12,-1.11,0.9948376736367679,-1.2893619849108109,-0.16689710972195776
2025-03-17 15:32:16.440070,0.76,-2.57,-0.35000000000000003,2.658354616943863,-2.088940948480713,2.2089323345553233
2025-03-17 15:32:16.498735,-0.73,2.62,-3.22,0.7690357016600015,-2.819797572753339,1.213003830136059
2025-03-17 15:32:16.559224,2.22,-4.3500000000000005,1.1500000000000001,1.174824752748683,-5.028729907308662,-1.3329952162106693
2025-03-17 15:32:16.619701,1.55,-0.77,-0.7000000000000001,3.1448651459372825,-2.808889264928374,0.4756022211684548
2025-03-17 15:32:16.680919,-0.52,0.86,-0.12,1.9678587316236065,-1.1224648751888533,1.768236698426755
2025-03-17 15:32:16.740564,2.69,-0.16,2.13,1.8740472843289113,0.2454369260617026,-0.8399397025222711
2025-03-17 15:32:16.799098,-0.58,1.19,-0.09,2.38237442897226,1.3286318930806833,-3.378302933391524
2025-03-17 15:32:16.859508,-0.23,1.12,-0.79,1.7213309747794074,-1.9362246389312094,1.0515608743265836
2025-03-17 15:32:16.919986,-3.0,-3.0500000000000003,3.16,4.634939994827441,-0.65558930028037,-0.7755806863549802
2025-03-17 15:32:16.981302,-5.65,-18.88,-2.6,1.878410607458897,-0.3436116964863836,-1.4704398948052226
2025-03-17 15:32:17.040777,-0.3,5.63,-4.17,-1.5347989109725135,0.03490658503988659,2.748893571891069
2025-03-17 15:32:17.099626,-0.13,-0.18,-4.5600000000000005,-0.7057675162752071,-1.2664545384783854,-0.019634954084936207
2025-03-17 15:32:17.160671,-1.6,-3.72,-1.37,1.0013826583317467,-4.055708849321824,0.8530296719122286
2025-03-17 15:32:17.221081,-3.86,-0.79,-2.84,-1.3308135546456763,-0.5639595145506677,-0.29888763440402893
2025-03-17 15:32:17.281576,-2.62,-4.05,0.05,0.5868669609830933,-1.2162763224835484,0.6490443155853913
2025-03-17 15:32:17.341480,-0.9400000000000001,-1.83,-0.86,-0.6348635154129374,-0.7570365630525404,0.7144941625351786
2025-03-17 15:32:17.400984,0.51,-1.33,1.94,1.1584622910112363,-0.2203478180642841,2.1631174416904724
2025-03-17 15:32:17.461496,0.68,0.39,0.76,-0.10690141668465268,0.5541420375081997,1.3362677085581585
2025-03-17 15:32:17.522567,2.9,-3.6,-1.0,0.18216874067690814,0.7232208087951503,0.9981101659842572
2025-03-17 15:32:17.582809,1.92,1.87,-0.86,-1.3504485087306124,0.8464846872172498,0.44178646691106466
2025-03-17 15:32:17.643281,0.6,1.41,1.44,-1.4944381720201447,0.19853120241435498,0.6730425928003133
2025-03-17 15:32:17.702983,1.02,0.9,-0.71,-1.0711958284115197,1.4028083862904424,0.0818123086872342
2025-03-17 15:32:17.763147,1.67,0.77,-5.89,-0.3839724354387525,-1.0319259202416473,1.4398966328953218
2025-03-17 15:32:17.823357,3.85,-0.32,0.1,0.6086835766330224,-0.06217735460229799,1.6504269739171378
2025-03-17 15:32:17.883779,-0.67,0.05,-0.14,0.6992225315802283,0.421060682043632,1.5369805725375065
2025-03-17 15:32:17.943314,-3.08,1.42,4.29,-2.3005621202850257,-0.8573929950422144,-0.8857545953871222
2025-03-17 15:32:18.002117,-1.17,-0.71,-0.8,-0.7144941625351786,1.1464631524037752,-1.5849771269673505
2025-03-17 15:32:18.060697,-0.76,-0.91,-1.8800000000000001,1.896954730761337,-0.7308566242726255,0.9577494270318884
2025-03-17 15:32:18.121131,0.23,-0.52,0.93,2.9779680362153247,0.025089107997418487,0.24652775684419906
2025-03-17 15:32:18.181707,-0.49,-0.52,-2.5,-0.5399612373357457,-0.22143864884678055,-0.9293878266869805
2025-03-17 15:32:18.242447,1.21,0.93,-0.37,2.6256296934689694,-0.4505131131710363,-1.784599160164202
2025-03-17 15:32:18.300990,-0.92,1.28,-0.42,2.0540343634408265,-0.1832595714594046,-1.6951510359994926
2025-03-17 15:32:18.359685,-1.67,-1.34,-2.2,1.1431906600562858,-2.4031002138396924,-3.0226920982976795
2025-03-17 15:32:18.420177,0.07,-0.84,0.04,0.5672320068981571,1.4442599560253078,0.3937899124812206
2025-03-17 15:32:18.480711,-1.24,-1.32,-2.65,-0.8792096106921435,-0.6806784082777885,-0.8933904108645975
2025-03-17 15:32:18.541282,0.5700000000000001,0.91,0.66,-3.6324665057131984,-0.33161255787892263,3.733913768485369
2025-03-17 15:32:18.599860,-0.13,-1.48,-0.46,0.5945027764605685,0.11780972450961724,3.0892327760299634
2025-03-17 15:32:18.658467,-1.07,0.62,-0.48,-0.33815754257390135,-0.980656873464314,2.6998061866787286
2025-03-17 15:32:18.717591,-0.25,-0.12,-1.21,1.373355955163038,1.4868023565426696,1.2380929381334775
2025-03-17 15:32:18.778011,1.43,-0.52,0.0,0.6872233929727672,1.9024088846738192,2.1871157189053942
2025-03-17 15:32:18.838744,-2.5,-0.37,1.6500000000000001,0.7766715171374766,0.15271630954950383,2.9365164664804593
2025-03-17 15:32:18.898694,0.5,-0.5700000000000001,-0.6,0.495237175253391,0.4636030825609938,2.62235720112148
2025-03-17 15:32:18.957426,0.42,0.31,-0.72,-0.48651052899341934,2.320197074369962,0.7733990247899872
2025-03-17 15:32:19.016184,-0.79,-0.37,-0.21,-0.16798794050445423,0.3817907738737596,1.1704614296186973
2025-03-17 15:32:19.076651,-0.21,-0.05,0.71,0.4112432050011639,0.6643159465403417,1.521708941582556
2025-03-17 15:32:19.137103,-0.45,0.2,0.41000000000000003,0.42542400517361784,0.8955720724295904,1.3188144160382154
2025-03-17 15:32:19.197775,0.17,0.11,-0.01,0.3643374813538163,-0.28579766501407144,1.583886296184854
2025-03-17 15:32:19.258102,0.18,0.55,0.53,-0.09053895494720585,0.05672320068981571,0.22362031041177347
2025-03-17 15:32:19.317699,-0.02,-0.91,-0.38,-0.44505895925855404,-0.10253809355466686,-0.6523168079328807
2025-03-17 15:32:19.378214,-0.63,-0.29,-0.08,-0.4068798818711781,0.22471114119426994,-0.48432886742842646
2025-03-17 15:32:19.438735,-0.5,0.19,-0.26,0.48978302134090873,0.21598449493429828,-0.8748462875621577
2025-03-17 15:32:19.499318,-1.28,0.2,-0.45,-0.055632369907319255,-0.25634523388666713,0.09599310885968812
2025-03-17 15:32:19.558530,0.86,-2.42,-1.0,0.385063266221249,0.07744898555724837,0.3272492347489368
2025-03-17 15:32:19.617736,-0.18,0.06,-0.02,0.039269908169872414,-0.15271630954950383,0.08617563181722002
2025-03-17 15:32:19.679078,0.24,0.22,-0.34,0.3043417883165112,-1.0722866591940161,1.0897399517139594
2025-03-17 15:32:19.739518,1.09,-1.78,-2.2,0.5726861608106394,0.11562806294462433,1.246819584393449
2025-03-17 15:32:19.800226,0.99,-0.02,-0.6,-0.02399827721492203,-0.385063266221249,1.0831949670189809
2025-03-17 15:32:19.858928,-0.32,-0.81,-0.23,0.22689280275926285,-0.7646723785300157,0.6305001922829515
2025-03-17 15:32:19.918158,-0.24,0.55,-0.42,0.06435901616729091,-0.41015237421866746,0.5715953300281429
2025-03-17 15:32:19.979223,-0.07,0.23,0.13,-0.10144726277217041,0.23889194136672387,-0.47669305195095124
2025-03-17 15:32:20.040331,-0.31,0.02,-0.13,-0.32834006553143325,0.19416787928436915,-0.48651052899341934
2025-03-17 15:32:20.100886,0.55,2.14,0.38,0.8290313946973066,-0.3523383427463553,-0.20616701789183017
2025-03-17 15:32:20.159358,-0.13,0.0,-0.44,-0.1461713248545251,-0.05345070834232634,-0.38288160465625604
2025-03-17 15:32:20.218069,-3.04,-0.52,-0.32,-0.2083486794568231,-0.23671027980173096,-0.4385139745635753
2025-03-17 15:32:20.277102,-0.65,-0.11,-0.24,0.13853550937704992,-0.07308566242726255,0.06544984694978735
2025-03-17 15:32:20.337489,0.0,0.18,-0.44,0.1832595714594046,0.032724923474893676,-0.003272492347489368
2025-03-17 15:32:20.397844,-0.47000000000000003,-0.18,-0.2,0.061086523819801536,-0.10690141668465268,0.017453292519943295
2025-03-17 15:32:20.457988,-0.19,-0.2,-0.39,0.05890486225480862,-0.10690141668465268,0.006544984694978736
2025-03-17 15:32:20.516804,-0.4,-0.18,-0.45,0.017453292519943295,-0.04145156973486533,0.003272492347489368
2025-03-17 15:32:20.575408,-0.42,0.76,0.14,-0.037088246604879506,0.02945243112740431,-0.0545415391248228
2025-03-17 15:32:20.636006,-0.11,0.12,-0.12,-0.06217735460229799,0.09708393964218458,0.22362031041177347
2025-03-17 15:32:20.696408,-0.39,0.56,-0.07,0.0545415391248228,0.04581489286485115,-0.22907446432425577
2025-03-17 15:32:20.757564,0.07,-0.81,-0.41000000000000003,-0.07526732399225546,0.015271630954950384,-0.6206827152404835
2025-03-17 15:32:20.817455,0.61,-1.51,-0.24,-0.13199052468207118,-0.22252947962927702,-1.1693705988362009
2025-03-17 15:32:20.876205,-0.29,0.53,0.26,0.04254240051736178,-0.07090400086226964,-0.030543261909900768
2025-03-17 15:32:20.936593,-0.18,0.04,-0.22,0.4308781590861001,-0.025089107997418487,-0.39051742013373125
2025-03-17 15:32:20.996923,-0.32,-0.36,-0.22,-0.07635815477475191,-0.05345070834232634,0.018544123302439753
2025-03-17 15:32:21.057508,0.28,-0.38,-0.13,-0.07744898555724837,-0.15162547876700738,-0.31306843457648287
2025-03-17 15:32:21.116030,-1.1400000000000001,-0.52,0.74,-0.21162117180431245,0.2716168648416175,-0.6643159465403417
2025-03-17 15:32:21.174555,-0.42,-0.59,-0.05,-0.38942658935123475,-0.06435901616729091,-0.013089969389957472
2025-03-17 15:32:21.234178,-0.48,0.1,0.22,-0.4385139745635753,0.35779249665883756,-0.32288591161895097
2025-03-17 15:32:21.295998,-0.51,-0.23,-0.21,-0.6392268385429232,0.11126473981463851,0.0719948316447661
2025-03-17 15:32:21.358439,-0.58,0.0,-0.24,-0.6424993308904126,0.11999138607461016,-0.6719517620178169
2025-03-17 15:32:21.416987,0.61,-1.01,-0.42,-0.6523168079328807,-0.9555677654668955,0.050178215994836975
2025-03-17 15:32:21.475535,-0.12,-0.34,0.61,-0.3621558197888234,0.05672320068981571,-0.8235772407848243
2025-03-17 15:32:21.534606,-0.22,-0.11,-2.42,-0.8879362569521152,-0.6272276999354622,-1.00029182754925
2025-03-17 15:32:21.594792,0.18,-1.47,-0.84,-0.65558930028037,1.251182907523435,-0.6981317007977318
2025-03-17 15:32:21.655137,-1.58,0.2,0.5,0.31634092692397225,0.5170537909033202,0.433059820651093
2025-03-17 15:32:21.716188,-0.89,1.01,0.33,-0.05890486225480862,0.39269908169872414,-0.8944812416470939
2025-03-17 15:32:21.775850,0.12,-0.35000000000000003,0.11,0.06872233929727672,0.16253378659197193,-0.3196134192714616
2025-03-17 15:32:21.834601,-0.93,0.79,-0.03,0.11999138607461016,0.06435901616729091,0.12762720155208535
2025-03-17 15:32:21.894838,-0.68,-0.53,-0.23,0.41015237421866746,-0.004363323129985824,0.16689710972195776
2025-03-17 15:32:21.955172,-0.64,0.72,0.66,0.17235126363444003,-0.23125612588924865,0.25743606466916363
2025-03-17 15:32:22.015790,-0.38,-0.58,-0.25,0.27379852640661045,-0.015271630954950384,0.04799655442984406
2025-03-17 15:32:22.074320,-0.55,-0.15,-0.15,0.7908523173099306,0.3108867730114899,-0.36324665057131983
2025-03-17 15:32:22.134025,0.0,0.0,-0.2,0.19634954084936207,0.011999138607461015,-0.23561944901923448
2025-03-17 15:32:22.195080,-0.66,1.28,-0.03,0.020725784867432664,0.013089969389957472,-0.8083056098298739
2025-03-17 15:32:22.255750,-0.6900000000000001,-0.12,-0.15,-0.22252947962927702,-0.08508480103472356,-0.019634954084936207
2025-03-17 15:32:22.316453,-0.23,-0.5,-0.62,0.08508480103472356,-0.08835729338221293,0.013089969389957472
2025-03-17 15:32:22.375169,-0.44,-0.38,-0.22,0.18653206380689397,-0.136353847812057,0.06872233929727672
2025-03-17 15:32:22.433758,-0.23,-0.34,-0.36,0.16471544815696484,-0.18544123302439752,0.04581489286485115
2025-03-17 15:32:22.493294,-0.3,-0.39,-0.62,0.17453292519943295,-0.17235126363444003,0.014180800172453928
2025-03-17 15:32:22.554844,-0.78,-0.45,0.01,0.136353847812057,-0.1636246173744684,-0.06763150851478027
2025-03-17 15:32:22.616320,-0.3,0.23,0.28,0.22907446432425577,-0.20398535632683726,-0.1810779098944117
2025-03-17 15:32:22.674792,0.68,-0.02,-0.99,0.32615840396644036,-0.3108867730114899,-0.001090830782496456
2025-03-17 15:32:22.733490,0.28,-0.46,-0.63,0.6424993308904126,-0.47123889803846897,0.3621558197888234
2025-03-17 15:32:22.792609,-1.06,0.11,-1.27,0.11671889372712078,-0.8846637646046258,0.026179938779914945
2025-03-17 15:32:22.852898,-1.18,-2.0300000000000002,-4.91,-0.2279836335417593,-1.5140731261050808,-0.35452000431134817
2025-03-17 15:32:22.912964,-0.64,1.07,-0.42,0.0,-1.4966198335851375,-0.35124751196385884
2025-03-17 15:32:22.973999,0.93,0.49,2.5100000000000002,0.9512044423369096,-0.8868454261696187,-0.4461497900410505
2025-03-17 15:32:23.033602,-5.25,-1.3,7.3,-0.4232423436086249,-0.49632800603588745,0.08508480103472356
2025-03-17 15:32:23.092340,-0.35000000000000003,-2.91,-1.34,0.1810779098944117,0.11562806294462433,-0.30325095753401476
2025-03-17 15:32:23.152630,0.35000000000000003,0.97,0.75,-0.028361600344907856,0.06872233929727672,-0.16253378659197193
2025-03-17 15:32:23.213013,-0.02,0.21,-0.71,-0.18871372537188688,0.16144295580947549,0.09490227807719166
2025-03-17 15:32:23.273540,-0.44,-0.75,-0.73,-0.0545415391248228,0.19962203319685143,0.05345070834232634
2025-03-17 15:32:23.332360,-0.24,0.06,0.55,0.10799224746714914,0.13199052468207118,-0.04690572364734761
2025-03-17 15:32:23.391066,-0.4,-0.55,-0.25,0.025089107997418487,0.05235987755982989,-0.09272061651219876
2025-03-17 15:32:23.450609,-0.5,-0.32,0.0,0.04145156973486533,-0.011999138607461015,-0.17998707911191522
2025-03-17 15:32:23.512002,-0.07,0.4,-0.19,0.06217735460229799,-0.05999569303730508,-0.19416787928436915
2025-03-17 15:32:23.572631,-0.34,-0.1,-0.09,0.028361600344907856,-0.10035643198967395,-0.019634954084936207
2025-03-17 15:32:23.631112,-0.27,-0.04,-0.21,0.09817477042468103,-0.2476185876266955,0.08290313946973066
2025-03-17 15:32:23.689834,-0.49,0.21,-0.4,0.10035643198967395,-0.2879793265790644,0.2552544031041707
2025-03-17 15:32:23.748886,-1.18,0.04,0.04,-0.01090830782496456,-0.18980455615438332,0.44724062082354693
2025-03-17 15:32:23.809191,-0.2,0.0,-0.5700000000000001,-0.028361600344907856,-0.06872233929727672,0.5377795757707527
2025-03-17 15:32:23.869831,-0.03,-0.61,-0.28,-0.10035643198967395,0.02399827721492203,0.1712604328519436
2025-03-17 15:32:23.929774,-0.17,-0.11,-0.03,-0.10253809355466686,0.08072147790473774,-0.03490658503988659
2025-03-17 15:32:23.988330,-0.4,-0.3,-0.04,0.013089969389957472,-0.03599741582238305,-0.015271630954950384
2025-03-17 15:32:24.047887,-0.22,-0.1,-0.01,0.1189005552921137,-0.1636246173744684,0.016362461737446838
2025-03-17 15:32:24.108085,-0.37,-0.01,-0.15,0.10799224746714914,-0.17998707911191522,0.06544984694978735
2025-03-17 15:32:24.168270,-0.29,0.13,-0.14,0.006544984694978736,-0.1908953869368798,0.05235987755982989
2025-03-17 15:32:24.228401,-0.05,-0.53,-0.13,0.003272492347489368,-0.1810779098944117,0.01090830782496456
2025-03-17 15:32:24.287006,-0.25,-0.01,0.04,0.13962634015954636,-0.16689710972195776,0.009817477042468103
2025-03-17 15:32:24.346285,-0.33,-0.12,-0.13,0.1439896632895322,-0.14726215563702155,-0.04254240051736178
2025-03-17 15:32:24.406255,-0.16,-0.13,-0.07,0.11235557059713497,-0.14508049407202864,-0.039269908169872414
2025-03-17 15:32:24.466029,-0.38,0.0,-0.1,0.07853981633974483,-0.15817046346198613,-0.06326818538479445
2025-03-17 15:32:24.525743,-0.2,-0.12,-0.02,0.1461713248545251,-0.16907877128695067,-0.02945243112740431
2025-03-17 15:32:24.585002,-0.21,-0.18,-0.3,0.037088246604879506,-0.11453723216212788,-0.08944812416470939
2025-03-17 15:32:24.643541,-0.26,-0.03,-0.28,-0.031634092692397225,-0.044724062082354694,-0.11017390903214205
2025-03-17 15:32:24.702284,-0.11,-0.13,-0.3,-0.11562806294462433,0.002181661564992912,-0.18435040224190105
2025-03-17 15:32:24.763349,0.36,0.8,-0.21,-0.24870941840919197,0.19634954084936207,-0.19962203319685143
2025-03-17 15:32:24.824622,0.1,0.5700000000000001,-0.1,-0.3141592653589793,0.18435040224190105,0.272707695624114
2025-03-17 15:32:24.884796,-2.22,1.51,-1.37,-1.1573714602287397,-0.026179938779914945,0.038179077387375956
2025-03-17 15:32:24.943215,-1.27,0.16,-3.3200000000000003,-1.696241866781989,-0.5497787143782138,-0.4036073895236887
2025-03-17 15:32:25.001874,-0.52,-1.17,-1.82,-1.1617347833587257,-0.43960480534607177,-0.2901609881440573
2025-03-17 15:32:25.062319,-0.2,-0.54,-0.93,-1.1279190291013355,-0.5934119456780721,-0.2530727415391778
2025-03-17 15:32:25.122690,0.04,-1.06,-0.81,-1.1693705988362009,-0.5257804371632918,-0.019634954084936207
2025-03-17 15:32:25.183479,0.17,-1.05,-0.19,-0.6708609312353204,-0.5345070834232635,-0.23889194136672387
2025-03-17 15:32:25.243289,0.07,-0.44,0.35000000000000003,-0.631591023065448,-0.4461497900410505,0.01090830782496456
2025-03-17 15:32:25.301916,-0.07,-0.65,0.51,-1.1453723216212788,-0.3719732968312915,0.2476185876266955
2025-03-17 15:32:25.362260,-0.19,-0.88,0.05,-1.249001245958442,-0.33161255787892263,0.2825251726665821
2025-03-17 15:32:25.422271,-0.43,-1.09,0.24,-0.9948376736367679,-0.3534291735288517,0.24980024919168842
2025-03-17 15:32:25.482445,-0.48,-1.31,0.32,-0.9992009967667537,-0.3119776037939864,0.30652344988150415
2025-03-17 15:32:25.541175,-0.44,-1.3,1.42,-0.8966629032120869,-0.34579335805137656,0.4014257279586958
2025-03-17 15:32:25.599851,-0.03,-1.96,3.0100000000000002,-0.9053895494720584,-0.22907446432425577,0.605411084285533
2025-03-17 15:32:25.659331,7.22,6.3,2.31,1.2806353386508393,-0.4636030825609938,1.7573283906017905
2025-03-17 15:32:25.719282,0.6900000000000001,-0.93,-1.79,0.21707532571679475,0.11562806294462433,0.1341721862470641
2025-03-17 15:32:25.779824,-0.24,-0.59,-0.01,-0.16471544815696484,0.5323254218582705,0.006544984694978736
2025-03-17 15:32:25.840588,0.01,-0.58,-0.58,-0.23671027980173096,0.4930555136883981,0.028361600344907856
2025-03-17 15:32:25.900166,-0.01,-0.27,0.4,-0.002181661564992912,0.24216443371421323,0.00545415391248228
2025-03-17 15:32:25.958867,-0.26,-0.43,0.13,0.10799224746714914,0.05999569303730508,0.08835729338221293
2025-03-17 15:32:26.018252,-0.3,-0.4,-0.04,0.04581489286485115,0.05781403147231216,0.10581058590215622
2025-03-17 15:32:26.078348,-0.22,-0.41000000000000003,0.01,0.030543261909900768,0.04908738521234052,0.13526301702956053
2025-03-17 15:32:26.138565,-0.1,-0.21,0.06,-0.05126904677733343,0.019634954084936207,0.14726215563702155
2025-03-17 15:32:26.197059,0.0,-0.48,-0.16,-0.1439896632895322,0.018544123302439753,0.2454369260617026
2025-03-17 15:32:26.256662,-0.45,-0.2,-0.17,-0.2792526803190927,-0.03599741582238305,0.26616271092913524
2025-03-17 15:32:26.317171,0.7000000000000001,0.8300000000000001,0.2,-0.284706834231575,-0.09053895494720585,0.40251655874119224
2025-03-17 15:32:26.377688,0.47000000000000003,0.59,-0.6,-0.33052172709642613,-0.11126473981463851,0.770126532442498
2025-03-17 15:32:26.438117,1.56,1.3,-1.72,-0.24107360293171676,0.02399827721492203,1.1475539831862718
2025-03-17 15:32:26.497066,5.93,4.7700000000000005,-2.31,0.27598018797160334,0.47123889803846897,2.404191044622189
2025-03-17 15:32:26.556407,6.8,3.43,0.23,0.6490443155853913,0.8148505945248526,4.000076479414504
2025-03-17 15:32:26.616397,-2.02,12.08,-0.32,-1.8260507298990674,0.23452861823673804,0.6174102228929941
2025-03-17 15:32:26.676744,-1.86,7.09,-2.38,-2.159844949342983,-0.008726646259971648,-0.8606654873897037
2025-03-17 15:32:26.737114,0.31,5.11,-2.27,-0.693768377667746,-0.07417649320975901,-1.8216874067690814
2025-03-17 15:32:26.797116,1.62,4.33,-1.07,-0.6992225315802283,-0.14726215563702155,-2.234021442552742
2025-03-17 15:32:26.855850,1.9100000000000001,2.0300000000000002,-1.1300000000000001,-0.964294411726867,-0.11780972450961724,-2.598358923906558
2025-03-17 15:32:26.914507,2.77,-0.91,-1.69,-1.1846422297911512,-0.05126904677733343,-2.789254310843438
2025-03-17 15:32:26.975140,2.88,-5.3500000000000005,-0.72,-1.0417433972841155,0.2181661564992912,-2.4554600913995226
2025-03-17 15:32:27.035539,1.3,-10.040000000000001,1.3900000000000001,-0.7733990247899872,-0.16035212502697901,-1.710422666954443
2025-03-17 15:32:27.096738,-0.47000000000000003,-15.870000000000001,0.03,-0.9981101659842572,0.11344640137963143,-0.607592745850526
2025-03-17 15:32:27.156581,0.17,-14.24,-0.72,0.7384924397501007,0.1538071403320003,0.8006697943523987
2025-03-17 15:32:27.215327,0.39,9.46,-2.71,-0.8519388411297321,0.7624907169650227,3.1514101306322613
2025-03-17 15:32:27.275657,4.15,-14.67,7.58,1.4202616788103857,-0.39924406639370286,3.719732968312915
2025-03-17 15:32:27.336141,-0.06,-0.37,0.28,0.37742745074377376,0.5105088062083414,0.1439896632895322
2025-03-17 15:32:27.397104,-0.07,-0.27,0.2,0.5137812985558308,-0.04254240051736178,0.27052603405912107
2025-03-17 15:32:27.456986,-0.31,-0.89,0.0,0.1505346479845109,-0.008726646259971648,0.3043417883165112
2025-03-17 15:32:27.515594,-0.25,-0.75,-0.02,0.23889194136672387,-0.10799224746714914,0.2683443724941282
2025-03-17 15:32:27.575854,0.05,-0.74,-0.41000000000000003,0.14944381720201447,-0.11344640137963143,0.28688849579656794
2025-03-17 15:32:27.636068,0.0,-0.9400000000000001,-0.42,0.09381144729469522,-0.04036073895236887,0.3665191429188092
2025-03-17 15:32:27.696349,0.35000000000000003,-0.47000000000000003,-0.27,-0.40578905108868163,-0.14835298641951802,0.7472190860100724
2025-03-17 15:32:27.755103,1.32,-0.64,-1.32,-0.3337942194439155,-0.2596177262341565,1.3460851856006266
2025-03-17 15:32:27.814856,1.26,-0.1,-2.2800000000000002,0.038179077387375956,-0.04799655442984406,1.7955074679891665
2025-03-17 15:32:27.875494,5.59,5.32,-3.16,0.7843073326149519,0.5792311455056182,3.462296903643751
2025-03-17 15:32:27.936019,5.11,0.23,2.81,1.5140731261050808,0.061086523819801536,4.979642522096322
2025-03-17 15:32:27.998535,0.27,11.68,0.46,0.26725354171163174,-0.4046982203061852,0.9839293658118032
2025-03-17 15:32:28.057217,-1.37,9.93,-0.28,0.18216874067690814,-0.7788531787024695,-1.7049685130419607
2025-03-17 15:32:28.116410,0.9500000000000001,5.36,-0.17,-0.08399397025222712,-1.0657416744990376,-2.7161686484161756
2025-03-17 15:32:28.176967,2.59,3.7800000000000002,1.6500000000000001,0.5737769915931359,-1.174824752748683,-3.9924406639370287
2025-03-17 15:32:28.237576,3.98,1.12,3.73,1.313360262125733,-1.3929909092479742,-3.5484725354609714
2025-03-17 15:32:28.298001,6.4,0.4,7.28,-2.260201381332657,0.3119776037939864,-3.815726077172603
2025-03-17 15:32:28.357423,6.5,-3.72,3.25,-0.18435040224190105,0.46469391334349025,-2.234021442552742
2025-03-17 15:32:28.416276,3.41,-8.91,2.42,-0.8224864100023278,0.6032294227205401,-1.4246250019403714
2025-03-17 15:32:28.476207,-0.76,-18.31,-0.77,-0.6959500392327389,0.4526947747360292,-1.0035643198967394
2025-03-17 15:32:28.537502,-6.93,-18.22,-0.03,1.8118699297266134,0.1189005552921137,2.5699973235616502
2025-03-17 15:32:28.599355,1.42,-25.79,6.11,1.9711312239710959,-0.8323038870447959,5.85121631731099
2025-03-17 15:32:28.659042,0.15,-1.37,-0.31,0.28579766501407144,0.2181661564992912,0.2378011105842274
2025-03-17 15:32:28.717552,0.02,-0.4,0.48,0.2825251726665821,-0.4036073895236887,0.15817046346198613
2025-03-17 15:32:28.776358,-0.16,-0.49,0.25,0.272707695624114,-0.34797501961636945,0.25416357232167425
2025-03-17 15:32:28.836682,-0.22,-0.73,0.11,0.18653206380689397,-0.2628902185816459,0.24652775684419906
2025-03-17 15:32:28.897058,-0.16,-0.39,0.56,0.6915867161027531,-0.011999138607461015,0.1712604328519436
2025-03-17 15:32:28.958405,0.59,0.75,0.31,-0.10799224746714914,-0.1734420944169365,0.9032078879070655
2025-03-17 15:32:29.018027,1.75,-0.18,-1.72,-0.21380283336930536,-0.3534291735288517,1.5871587885323435
2025-03-17 15:32:29.076785,3.73,3.0100000000000002,-2.46,0.48651052899341934,-0.4265148359561143,2.2187498115977915
2025-03-17 15:32:29.137222,8.98,8.13,-0.39,1.6787885742620456,0.44178646691106466,4.140793650356547
2025-03-17 15:32:29.197404,9.59,19.78,1.96,0.16907877128695067,0.10471975511965978,1.5249814339300454
2025-03-17 15:32:29.257962,0.18,15.55,3.24,-1.365720139685563,-0.48651052899341934,-1.2380929381334775
2025-03-17 15:32:29.316575,1.04,5.47,1.04,-0.022907446432425576,0.11235557059713497,-2.1347558413455645
2025-03-17 15:32:29.375105,1.85,2.09,1.56,1.177006414313676,0.24325526449670967,-3.3532138253941057
2025-03-17 15:32:29.435082,4.3500000000000005,0.35000000000000003,2.59,0.4046982203061852,-0.23561944901923448,-3.9815323561120644
2025-03-17 15:32:29.495519,5.6000000000000005,-5.69,2.0100000000000002,-0.3370667117914049,0.24652775684419906,-3.5779249665883754
2025-03-17 15:32:29.555296,4.7,-8.76,-0.26,0.28034351110158917,0.8333947178272924,-2.610358062514019
2025-03-17 15:32:29.615106,1.53,-11.370000000000001,-0.74,1.126828198318839,0.6337726846304409,-1.928588823453734
2025-03-17 15:32:29.673680,0.1,-13.0,0.43,0.9075712110370514,0.3719732968312915,-0.5366887449882564
2025-03-17 15:32:29.733014,-2.63,-15.71,-0.51,0.04581489286485115,0.44833145160604343,2.5132741228718345
2025-03-17 15:32:29.794136,3.0700000000000003,-9.35,-1.54,1.473712387152712,-0.5748678223756323,1.1377365061438036
2025-03-17 15:32:29.854218,0.04,-0.41000000000000003,0.53,0.8955720724295904,0.4723297288209654,0.4526947747360292
2025-03-17 15:32:29.914746,-0.18,-0.05,0.13,0.6599526234103559,0.06544984694978735,0.4526947747360292
2025-03-17 15:32:29.973348,-0.44,-0.9,1.17,0.6250460383704692,-0.03381575425739013,0.2781618495365963
2025-03-17 15:32:30.032054,1.6400000000000001,-6.78,-7.15,1.00029182754925,-0.6806784082777885,0.2716168648416175
2025-03-17 15:32:30.092510,-0.25,-0.42,0.35000000000000003,-0.014180800172453928,-0.19416787928436915,0.1734420944169365
2025-03-17 15:32:30.153422,0.09,0.74,-0.02,-0.10799224746714914,-0.12980886311707826,-0.15271630954950383
2025-03-17 15:32:30.214446,0.47000000000000003,-0.01,-2.67,-2.796890126320913,-0.136353847812057,0.20616701789183017
2025-03-17 15:32:30.274159,0.3,0.16,0.18,-0.04036073895236887,-0.5039638215133626,0.36106498900632694
2025-03-17 15:32:30.332694,0.56,-0.4,-0.36,-0.1832595714594046,-0.38724492778624187,0.6566801310628665
2025-03-17 15:32:30.392643,3.2,2.99,-0.18,-0.1832595714594046,-0.5552328682906961,1.1071932442339028
2025-03-17 15:32:30.452697,3.56,1.55,0.11,0.44724062082354693,-0.18980455615438332,2.3300145514124297
2025-03-17 15:32:30.513149,-0.21,10.09,0.6900000000000001,-0.08290313946973066,0.031634092692397225,0.16035212502697901
2025-03-17 15:32:30.572681,-0.4,4.67,0.54,-0.4494222823885399,-0.10581058590215622,-1.1104657365813921
2025-03-17 15:32:30.632302,0.39,0.32,0.72,-0.657770961845363,-0.2476185876266955,-0.878118779909647
2025-03-17 15:32:30.691750,0.6900000000000001,-1.73,1.29,0.30652344988150415,-0.031634092692397225,-0.9413869652944415
2025-03-17 15:32:30.752486,0.26,-1.06,1.18,1.177006414313676,0.13308135546456762,-1.0035643198967394
2025-03-17 15:32:30.812990,0.12,-0.48,1.52,0.9675669040743564,0.017453292519943295,-0.9795660426818175
2025-03-17 15:32:30.872884,0.16,-2.19,0.64,1.2315479534384988,-0.06763150851478027,-1.002473489114243
2025-03-17 15:32:30.931370,0.28,-2.41,1.44,1.5991579271398044,-0.05781403147231216,-1.0679233360640303
2025-03-17 15:32:30.990971,0.59,-1.93,1.51,1.5500705419274639,-0.11562806294462433,-0.8519388411297321
2025-03-17 15:32:31.052370,0.81,-0.91,1.83,1.313360262125733,0.003272492347489368,-0.8312130562622995
2025-03-17 15:32:31.112525,0.93,-0.03,2.14,1.0101093045917182,0.14944381720201447,-0.8235772407848243
2025-03-17 15:32:31.172916,0.53,-0.38,2.32,0.4821472058634335,0.3741549583962844,-0.6708609312353204
2025-03-17 15:32:31.231495,-0.12,-0.12,1.17,0.25634523388666713,0.4505131131710363,-0.8879362569521152
2025-03-17 15:32:31.290560,-0.09,-0.12,1.41,0.13308135546456762,0.4385139745635753,-0.8083056098298739
2025-03-17 15:32:31.351017,0.21,-0.96,0.9500000000000001,-0.28361600344907856,0.5857761302005968,-0.6948592084502424
2025-03-17 15:32:31.411453,-0.8,323.03000000000003,-2.5500000000000003,-0.7144941625351786,0.8355763793922852,-0.1712604328519436
2025-03-17 15:32:31.472701,-1.81,-14.82,-4.46,-0.2203478180642841,0.507236313860852,0.5541420375081997
2025-03-17 15:32:31.531421,0.49,-1.95,0.09,0.9708393964218458,-0.4690572364734761,1.3144510929082294
2025-03-17 15:32:31.590045,-0.18,0.56,0.39,0.868301302867179,-0.23125612588924865,0.6763150851478027
2025-03-17 15:32:31.650508,0.42,-0.53,-0.9400000000000001,-0.07090400086226964,0.09599310885968812,0.2977968036215325
2025-03-17 15:32:31.710816,-0.3,-0.13,0.44,-0.18762289458939044,0.01090830782496456,0.16471544815696484
2025-03-17 15:32:31.771174,-0.15,-0.23,-0.02,-0.06981317007977318,-0.11562806294462433,0.1341721862470641
2025-03-17 15:32:31.831012,-0.14,0.01,0.24,-0.32070425005395803,-0.0719948316447661,0.1308996938995747
2025-03-17 15:32:31.890807,-0.15,-0.31,-0.16,0.009817477042468103,-0.15271630954950383,0.30325095753401476
2025-03-17 15:32:31.950126,-0.03,0.22,-0.27,-0.02945243112740431,-0.03599741582238305,0.17671458676442586
2025-03-17 15:32:32.010489,-0.01,-0.45,0.06,-0.04363323129985824,0.02945243112740431,0.24652775684419906
2025-03-17 15:32:32.071143,0.99,1.81,0.2,-0.7657632093125121,-0.11126473981463851,0.5410520681182421
2025-03-17 15:32:32.131308,6.78,5.3,-1.23,-0.5410520681182421,0.4014257279586958,2.41619018322965
2025-03-17 15:32:32.190957,-3.31,5.15,6.99,-2.5743606466916362,0.5661411761156606,1.8020524526841453
2025-03-17 15:32:32.249888,-2.99,8.74,-1.01,-2.616903047208998,0.27052603405912107,0.2901609881440573
2025-03-17 15:32:32.310346,-2.48,3.65,-3.77,-1.626428696702216,0.35561083509384467,-0.9577494270318884
2025-03-17 15:32:32.370238,-0.8200000000000001,2.49,-3.83,-0.7908523173099306,0.07090400086226964,-1.6046120810522868
2025-03-17 15:32:32.430596,0.73,1.09,-3.87,-2.0529435326583303,0.10690141668465268,-1.4060808786379317
2025-03-17 15:32:32.489260,0.62,-1.12,-3.96,-2.2045690114253373,-0.05126904677733343,-1.365720139685563
2025-03-17 15:32:32.548091,0.17,-3.15,-4.2,-1.7649642060792659,-0.14726215563702155,-1.4682582332402296
2025-03-17 15:32:32.609249,0.27,-3.04,-2.71,-1.0679233360640303,-0.24652775684419906,-2.405281875404685
2025-03-17 15:32:32.669808,-0.11,-3.36,-0.6,-1.4780757102826978,-0.4636030825609938,-1.3035427850832648
2025-03-17 15:32:32.730137,2.45,-5.0600000000000005,-0.12,-1.9373154697137058,-0.3021601267515183,-0.43196898986859655
2025-03-17 15:32:32.789990,1.35,-7.26,-0.14,-1.7049685130419607,-0.2552544031041707,0.14726215563702155
2025-03-17 15:32:32.849893,-3.2800000000000002,-11.8,-2.85,-0.9446594576419308,0.23452861823673804,1.6351553429621875
2025-03-17 15:32:32.910691,4.61,-3.72,-1.74,0.16144295580947549,0.5039638215133626,4.018620602716944
2025-03-17 15:32:32.971119,0.59,-2.34,0.01,0.6654067773228381,0.23125612588924865,1.0810133054539879
2025-03-17 15:32:33.031589,0.3,-1.57,-1.24,0.38069994309126315,0.16907877128695067,0.5006913291658733
2025-03-17 15:32:33.090923,-1.18,1.03,1.1400000000000001,0.7090400086226963,-0.10690141668465268,0.46142142099600086
2025-03-17 15:32:33.150832,-1.23,-12.83,-1.06,-0.6108652381980153,-0.31525009614147576,3.8822667549048866
2025-03-17 15:32:33.211252,-0.3,-0.37,-0.13,-0.30652344988150415,-0.33597588100890846,0.11344640137963143
2025-03-17 15:32:33.271408,-0.23,-0.58,-0.1,0.08508480103472356,-0.1930770485018727,0.22689280275926285
2025-03-17 15:32:33.331721,-0.17,-0.36,-0.14,0.16580627893946132,-0.14180800172453928,0.20616701789183017
2025-03-17 15:32:33.390203,-0.13,-0.37,-0.09,0.06217735460229799,-0.1712604328519436,0.25089107997418486
2025-03-17 15:32:33.448893,0.03,0.02,0.05,-0.04145156973486533,-0.20943951023931956,0.36979163526629855
2025-03-17 15:32:33.507514,0.09,-0.75,-0.43,-0.46469391334349025,-0.2476185876266955,0.41996985126113556
2025-03-17 15:32:33.567908,0.74,-1.21,-0.74,-0.1505346479845109,-0.11344640137963143,0.6534076387153771
2025-03-17 15:32:33.629048,3.61,1.28,-1.67,0.4374231437810788,-0.07090400086226964,2.3081979357625007
2025-03-17 15:32:33.689997,2.29,3.88,1.19,0.2650718801466388,0.5999569303730508,2.6714445863338208
2025-03-17 15:32:33.748539,-0.88,11.58,0.71,-1.4682582332402296,-0.14508049407202864,0.3839724354387525
2025-03-17 15:32:33.807223,-1.51,6.09,-0.73,-1.2740903539558606,0.07526732399225546,-0.830122225479803
2025-03-17 15:32:33.867740,-0.23,4.05,-1.11,-0.8257589023498172,0.2203478180642841,-1.714785990084429
2025-03-17 15:32:33.928736,1.0,2.34,-1.1300000000000001,-0.8617563181722002,0.3981532356112064,-3.0826877913349846
2025-03-17 15:32:33.990018,2.5300000000000002,-0.79,-1.17,-0.605411084285533,0.17016960206944712,-3.1503192998497647
2025-03-17 15:32:34.048606,-0.16,-9.93,-3.38,-0.40251655874119224,0.34797501961636945,-1.4933473412376481
2025-03-17 15:32:34.107390,2.02,-6.78,-0.07,-0.0719948316447661,0.24980024919168842,-1.4278974942878608
2025-03-17 15:32:34.167843,3.31,-8.93,1.27,-0.47778388273344774,0.3043417883165112,-1.3057244466482578
2025-03-17 15:32:34.228219,0.61,-8.61,1.6400000000000001,0.11780972450961724,0.4908738521234052,0.04799655442984406
2025-03-17 15:32:34.288836,-1.9100000000000001,6.65,-2.97,-0.4985096676008804,0.7690357016600015,-0.16035212502697901
2025-03-17 15:32:34.347317,3.04,-1.01,-1.76,0.5181446216858165,0.45814892864851153,0.3981532356112064
2025-03-17 15:32:34.405861,-0.05,-0.64,1.08,0.3097959422289935,0.41560652813114973,-0.30652344988150415
2025-03-17 15:32:34.466437,0.14,-1.3800000000000001,-0.16,0.2999784651865254,0.5563236990731926,-0.07417649320975901
2025-03-17 15:32:34.527802,-0.09,-0.49,-0.04,0.019634954084936207,0.22907446432425577,-0.14180800172453928
2025-03-17 15:32:34.588198,1.09,-2.5100000000000002,-1.42,0.1189005552921137,-0.3392483733563978,1.7551467290367977
2025-03-17 15:32:34.647224,-0.36,-0.71,-0.21,-0.08290313946973066,0.14180800172453928,-0.025089107997418487
2025-03-17 15:32:34.705863,0.16,-0.22,-0.08,-0.16035212502697901,0.07308566242726255,-0.1712604328519436
2025-03-17 15:32:34.764673,-0.27,-0.9,0.0,-0.015271630954950384,0.15707963267948966,-0.05126904677733343
2025-03-17 15:32:34.824935,-0.06,0.03,0.05,-0.06872233929727672,0.09817477042468103,0.28579766501407144
2025-03-17 15:32:34.885912,-0.41000000000000003,-1.79,-0.64,-0.11235557059713497,-0.10799224746714914,0.3021601267515183
2025-03-17 15:32:34.947676,-0.2,-0.37,-0.07,-0.0916297857297023,0.04363323129985824,0.3785182815262702
2025-03-17 15:32:35.006182,0.72,-0.4,-0.16,0.001090830782496456,0.1341721862470641,0.16689710972195776
2025-03-17 15:32:35.064847,-3.08,-0.15,0.13,-0.09708393964218458,-0.10690141668465268,0.17453292519943295
2025-03-17 15:32:35.125258,-1.09,-0.76,-0.5,0.15162547876700738,0.21598449493429828,0.11235557059713497
2025-03-17 15:32:35.185676,0.28,-1.19,-0.19,0.8901179185171081,1.0101093045917182,0.3534291735288517
2025-03-17 15:32:35.246219,1.78,-0.18,1.27,-0.7450374244450795,-0.5977752688080579,-0.10144726277217041
2025-03-17 15:32:35.305783,-0.6,-2.56,0.09,0.20507618710933373,0.03490658503988659,-0.3392483733563978
2025-03-17 15:32:35.365807,-0.88,-0.37,-0.42,0.050178215994836975,0.18980455615438332,0.7657632093125121
2025-03-17 15:32:35.426127,-0.02,-0.72,-0.38,0.5465062220307244,-0.10581058590215622,0.4788747135159442
2025-03-17 15:32:35.486547,0.77,-0.55,-0.96,0.3643374813538163,-0.35997415822383044,0.7395832705325971
2025-03-17 15:32:35.547006,-0.89,-0.34,0.01,-0.18653206380689397,-0.33161255787892263,-0.3425208657038872
2025-03-17 15:32:35.605461,-0.51,0.04,0.18,0.09381144729469522,-0.09490227807719166,-0.2999784651865254
2025-03-17 15:32:35.663992,0.14,-0.45,-0.29,0.30325095753401476,-0.05126904677733343,0.6948592084502424
2025-03-17 15:32:35.724326,-0.17,-1.07,-0.54,-0.022907446432425576,-0.025089107997418487,0.29561514205653955
2025-03-17 15:32:35.785776,0.18,-0.5,-0.85,-0.07963064712224129,0.4657847441259867,1.3700834628155487
2025-03-17 15:32:35.845932,-0.18,-0.78,0.3,-0.10799224746714914,0.7723081940074908,-0.30325095753401476
2025-03-17 15:32:35.905033,-0.38,-0.29,0.02,0.037088246604879506,0.039269908169872414,-0.346884188833873
2025-03-17 15:32:35.963610,-0.78,-1.08,0.14,0.0719948316447661,-0.07526732399225546,-0.1636246173744684
2025-03-17 15:32:36.022238,-0.3,0.27,-0.15,0.20180369476184434,-0.04690572364734761,-0.13744467859455345
2025-03-17 15:32:36.082408,-0.36,-0.2,-0.04,0.0,-0.2399827721492203,1.2959069696057897
2025-03-17 15:32:36.142729,0.17,-1.6,-1.45,-0.14835298641951802,0.03599741582238305,1.6275195274847123
2025-03-17 15:32:36.203293,0.24,0.34,0.86,0.4908738521234052,-1.0602875205865552,3.131775176547325
2025-03-17 15:32:36.262514,-0.58,-1.24,0.65,0.0272707695624114,0.2454369260617026,-0.6337726846304409
2025-03-17 15:32:36.322166,-0.54,-1.25,0.45,0.09817477042468103,-0.044724062082354694,-2.973604713085339
2025-03-17 15:32:36.382990,1.01,-2.8000000000000003,-1.1,0.33488505022641196,0.5170537909033202,-2.109666733348146
2025-03-17 15:32:36.443356,-0.46,-1.12,-0.16,-0.1189005552921137,-0.002181661564992912,0.022907446432425576
2025-03-17 15:32:36.503955,-0.42,-0.89,-0.98,0.25089107997418486,0.16798794050445423,-0.5672320068981571
2025-03-17 15:32:36.562502,1.9100000000000001,-1.1500000000000001,-0.79,0.21489366415180183,0.37306412761378793,0.5683228376806536
2025-03-17 15:32:36.621079,-0.14,-0.47000000000000003,0.39,0.22471114119426994,0.05999569303730508,0.2519819107566813
2025-03-17 15:32:36.680946,-0.08,-1.04,-0.6,0.0916297857297023,0.16144295580947549,0.022907446432425576
2025-03-17 15:32:36.741404,-0.81,0.06,0.11,0.06872233929727672,0.06763150851478027,-0.24870941840919197
2025-03-17 15:32:36.802728,0.21,-1.23,-0.08,-0.12217304763960307,-0.04145156973486533,-0.4537856055185257
2025-03-17 15:32:36.862282,-0.03,-0.63,-0.04,0.13199052468207118,0.2007128639793479,-0.6784967467127956
2025-03-17 15:32:36.921023,-0.92,-0.58,0.66,-0.04363323129985824,-0.1505346479845109,-0.22907446432425577
2025-03-17 15:32:36.980097,-0.11,-1.1,-0.58,-0.04363323129985824,-0.013089969389957472,-0.10799224746714914
2025-03-17 15:32:37.040862,-0.47000000000000003,-0.5700000000000001,-0.05,-0.06872233929727672,0.019634954084936207,-0.18216874067690814
2025-03-17 15:32:37.102435,0.16,-0.85,-0.8300000000000001,0.05235987755982989,0.11017390903214205,-0.29888763440402893
2025-03-17 15:32:37.162742,-0.49,-0.97,-0.79,-0.032724923474893676,0.09490227807719166,-0.12762720155208535
