Time,AccX,AccY,AccZ,GyroX,GyroY,GyroZ
2025-02-04 15:55:56.793800,0.0,0.0,0.0,-0.003272492347489368,0.008726646259971648,0.001090830782496456
2025-02-04 15:55:56.900791,8.91,-3.87,-0.78,-0.05890486225480862,0.12762720155208535,-0.08726646259971647
2025-02-04 15:55:57.005388,9.08,-4.07,-0.92,-0.008726646259971648,0.002181661564992912,-0.04363323129985824
2025-02-04 15:55:57.112685,8.700000000000001,-3.91,-0.73,0.009817477042468103,-0.02181661564992912,0.008726646259971648
2025-02-04 15:55:57.218745,9.24,-4.17,-1.05,0.07308566242726255,0.028361600344907856,0.14835298641951802
2025-02-04 15:55:57.324813,11.28,-4.61,-0.68,-0.06981317007977318,0.1908953869368798,-0.10362892433716332
2025-02-04 15:55:57.431369,10.8,-4.16,-0.88,-0.11999138607461016,0.22143864884678055,-0.36106498900632694
2025-02-04 15:55:57.536998,9.31,-3.79,-0.64,-0.2007128639793479,0.05126904677733343,-0.28034351110158917
2025-02-04 15:55:57.641570,8.5,-4.0,-1.08,-0.1505346479845109,-0.16907877128695067,-0.4166973589136462
2025-02-04 15:55:57.746313,9.620000000000001,-2.5500000000000003,-0.45,-0.16253378659197193,-0.13962634015954636,-0.17998707911191522
2025-02-04 15:55:57.850887,10.22,-1.95,-0.74,-0.08072147790473774,0.10581058590215622,-0.26616271092913524
2025-02-04 15:55:57.955674,9.91,-1.78,-0.97,-0.1461713248545251,0.20289452554434081,-0.25634523388666713
2025-02-04 15:55:58.060524,9.83,-2.0100000000000002,-0.67,-0.2999784651865254,0.3272492347489368,-0.2454369260617026
2025-02-04 15:55:58.168045,8.82,-1.8800000000000001,-0.9,-0.5617778529856748,-0.15271630954950383,0.1538071403320003
2025-02-04 15:55:58.272846,8.89,-1.9000000000000001,-0.89,0.20507618710933373,-0.039269908169872414,-0.7504915783575618
2025-02-04 15:55:58.379651,10.1,-1.1500000000000001,-1.49,-0.07963064712224129,0.07526732399225546,-0.557414529855689
2025-02-04 15:55:58.485082,10.620000000000001,-0.58,-0.2,-0.21598449493429828,0.5148721293383273,-0.9512044423369096
2025-02-04 15:55:58.591680,7.5200000000000005,0.52,-0.23,0.12762720155208535,0.1265363707695889,-0.6490443155853913
2025-02-04 15:55:58.695769,5.17,1.84,0.11,-0.0818123086872342,0.210530341021816,-0.07853981633974483
2025-02-04 15:55:58.800260,6.3,-0.41000000000000003,0.61,0.0719948316447661,0.07635815477475191,0.41015237421866746
2025-02-04 15:55:58.904941,8.42,-0.09,0.42,-0.2530727415391778,-0.13308135546456762,0.6359543461954338
2025-02-04 15:55:59.009498,9.31,-0.93,-0.18,0.13744467859455345,-0.06763150851478027,0.4985096676008804
2025-02-04 15:55:59.114430,9.27,-0.6900000000000001,0.13,-0.1712604328519436,-0.24652775684419906,0.533416252640767
2025-02-04 15:55:59.220155,8.88,-1.27,0.18,-0.2454369260617026,-0.011999138607461015,0.4439681284760576
2025-02-04 15:55:59.326159,8.5,-2.31,-0.8,0.34470252726888007,-0.2912518189265537,0.7712173632249943
2025-02-04 15:55:59.432171,9.52,-4.68,-1.41,0.2694352032766246,-0.16253378659197193,0.32834006553143325
2025-02-04 15:55:59.538013,9.36,-3.35,0.27,-0.0818123086872342,0.03490658503988659,0.46142142099600086
2025-02-04 15:55:59.644440,10.97,-3.6,-1.12,-0.06326818538479445,-0.2650718801466388,0.15489797111449674
2025-02-04 15:55:59.749896,9.56,-3.62,-1.55,0.2814343418840856,0.14289883250703572,0.5497787143782138
2025-02-04 15:55:59.854532,9.26,-3.4,-2.57,0.16144295580947549,-0.3948807432637171,0.49632800603588745
2025-02-04 15:55:59.959354,8.68,-4.46,-1.49,0.18653206380689397,0.4286964975211072,0.2596177262341565
2025-02-04 15:56:00.063960,9.450000000000001,-4.51,-1.6600000000000001,-0.06326818538479445,0.23343778745424157,0.2476185876266955
2025-02-04 15:56:00.168520,9.9,-5.3100000000000005,-0.22,0.001090830782496456,0.4014257279586958,-0.18653206380689397
2025-02-04 15:56:00.273724,9.9,-5.21,-0.85,-0.07417649320975901,0.23671027980173096,-0.2694352032766246
2025-02-04 15:56:00.381012,11.69,-5.5,-0.25,0.031634092692397225,0.1712604328519436,-0.2454369260617026
2025-02-04 15:56:00.485735,10.4,-4.8,-0.51,-0.23671027980173096,0.09708393964218458,0.0272707695624114
2025-02-04 15:56:00.592956,10.11,-4.03,-0.47000000000000003,-0.02181661564992912,-0.13199052468207118,-0.3665191429188092
2025-02-04 15:56:00.699039,8.370000000000001,-3.65,-0.63,-0.00545415391248228,-0.4821472058634335,-0.5039638215133626
2025-02-04 15:56:00.805506,7.88,-2.57,-0.81,0.11126473981463851,-0.02399827721492203,-0.15707963267948966
2025-02-04 15:56:00.916412,8.97,-5.73,-1.94,0.6544984694978736,-0.42542400517361784,-0.3108867730114899
2025-02-04 15:56:01.025144,8.84,-3.39,-1.33,0.3763366199612773,0.07308566242726255,-0.6370451769779303
2025-02-04 15:56:01.136828,9.86,-2.91,-0.61,0.3196134192714616,0.5988660995905544,-0.5465062220307244
2025-02-04 15:56:01.248306,9.01,-2.09,-0.33,-0.06981317007977318,0.25089107997418486,-0.507236313860852
2025-02-04 15:56:01.360185,9.8,-1.35,0.2,-0.050178215994836975,0.20398535632683726,-0.9206611804270088
2025-02-04 15:56:01.469846,9.02,-0.5700000000000001,0.16,-0.10035643198967395,0.136353847812057,-0.5312345910757741
2025-02-04 15:56:01.580100,8.16,-0.04,0.22,-0.08290313946973066,-0.15817046346198613,-0.4690572364734761
2025-02-04 15:56:01.691779,7.69,0.8300000000000001,0.29,0.05672320068981571,-0.11344640137963143,-0.48651052899341934
2025-02-04 15:56:01.803415,6.9,0.5,-0.22,0.04581489286485115,-0.210530341021816,0.019634954084936207
2025-02-04 15:56:01.914766,6.62,0.5700000000000001,-0.43,-0.15271630954950383,0.10362892433716332,0.20398535632683726
2025-02-04 15:56:02.024554,8.06,0.15,0.22,-0.20507618710933373,0.24652775684419906,0.37306412761378793
2025-02-04 15:56:02.134713,9.07,-0.55,-0.16,-0.13853550937704992,0.20943951023931956,0.25743606466916363
2025-02-04 15:56:02.246144,9.3,-0.87,0.5700000000000001,-0.2378011105842274,0.2399827721492203,0.4014257279586958
2025-02-04 15:56:02.357441,9.34,-1.41,0.96,-0.17780541754692233,0.06326818538479445,0.5923211148955756
2025-02-04 15:56:02.468825,9.35,-1.3900000000000001,0.96,-0.12980886311707826,-0.0272707695624114,0.6752242543653062
2025-02-04 15:56:02.578645,8.49,-2.09,0.37,-0.4036073895236887,-0.5759586531581288,0.7199483164476609
2025-02-04 15:56:02.688267,9.25,-3.81,-0.06,0.008726646259971648,-0.4461497900410505,0.3817907738737596
2025-02-04 15:56:02.799300,9.65,-4.0200000000000005,-0.46,0.4385139745635753,-0.2378011105842274,0.44724062082354693
2025-02-04 15:56:02.910644,9.84,-3.48,-0.46,0.044724062082354694,-0.09926560120717749,0.20289452554434081
2025-02-04 15:56:03.021980,10.21,-5.44,0.6900000000000001,0.43196898986859655,-0.20180369476184434,0.10253809355466686
2025-02-04 15:56:03.131800,10.56,-4.87,-0.88,0.3948807432637171,0.3937899124812206,0.10581058590215622
2025-02-04 15:56:03.241637,10.86,-4.39,-0.27,-0.022907446432425576,0.004363323129985824,0.18762289458939044
2025-02-04 15:56:03.352350,11.0,-4.68,-0.31,-0.09272061651219876,-0.3719732968312915,0.1308996938995747
2025-02-04 15:56:03.463892,10.07,-4.38,-0.35000000000000003,0.02945243112740431,0.2552544031041707,-0.16798794050445423
2025-02-04 15:56:03.574396,9.84,-3.8000000000000003,0.18,0.037088246604879506,0.013089969389957472,-0.1538071403320003
2025-02-04 15:56:03.683352,8.82,-2.85,0.99,0.0818123086872342,-0.385063266221249,-0.11562806294462433
2025-02-04 15:56:03.793544,8.83,-2.84,-0.27,0.1908953869368798,-0.37742745074377376,-0.39269908169872414
2025-02-04 15:56:03.904233,9.47,-2.8000000000000003,-0.43,0.22143864884678055,-0.14289883250703572,-0.631591023065448
2025-02-04 15:56:04.015852,8.950000000000001,-2.5,-1.92,-0.2650718801466388,-0.04145156973486533,-0.657770961845363
2025-02-04 15:56:04.127194,9.05,-0.87,-0.42,-0.29343348049154666,0.45705809786601503,-1.002473489114243
2025-02-04 15:56:04.237264,8.69,-0.34,-0.07,-0.5519603759432067,0.26398104936414235,-0.605411084285533
2025-02-04 15:56:04.347159,8.83,-0.27,-0.73,-0.4494222823885399,-0.13962634015954636,0.13744467859455345
2025-02-04 15:56:04.458708,8.52,-0.7000000000000001,-1.26,0.13962634015954636,0.04690572364734761,-0.3785182815262702
2025-02-04 15:56:04.569526,7.74,0.66,-0.34,-0.04363323129985824,0.11344640137963143,-0.6730425928003133
2025-02-04 15:56:04.681342,6.87,0.99,-0.6,-0.06435901616729091,0.018544123302439753,-0.09599310885968812
2025-02-04 15:56:04.790647,7.74,1.05,-0.26,-0.02945243112740431,0.14289883250703572,0.12871803233458182
2025-02-04 15:56:04.899943,8.42,0.63,-0.14,-0.0818123086872342,0.17671458676442586,0.26398104936414235
2025-02-04 15:56:05.011734,8.14,-0.21,-0.29,-0.10690141668465268,-0.017453292519943295,0.5388704065532492
2025-02-04 15:56:05.123269,8.76,-0.78,-0.66,-0.19198621771937624,0.11453723216212788,0.7548549014875475
2025-02-04 15:56:05.233990,9.1,-0.97,-0.15,-0.15707963267948966,0.1439896632895322,0.4854196982109229
2025-02-04 15:56:05.343852,9.67,-1.28,0.67,0.03599741582238305,-0.09599310885968812,0.7057675162752071
2025-02-04 15:56:05.452909,8.89,-1.93,0.21,-0.06654067773228381,-0.11671889372712078,0.4046982203061852
2025-02-04 15:56:05.564498,8.19,-2.77,0.11,0.039269908169872414,-0.1930770485018727,0.1538071403320003
2025-02-04 15:56:05.675912,9.82,-3.41,-0.12,0.4079707126536745,0.15707963267948966,0.10581058590215622
2025-02-04 15:56:05.787800,9.96,-3.0500000000000003,0.05,0.16035212502697901,-0.1636246173744684,0.39706240482870997
2025-02-04 15:56:05.897275,9.98,-4.18,-0.31,0.21271200258680892,-0.2650718801466388,0.5246896063807953
2025-02-04 15:56:06.007214,9.64,-4.43,-1.12,0.24652775684419906,-0.4625122517784973,0.31634092692397225
2025-02-04 15:56:06.119104,10.41,-4.91,-1.06,0.12762720155208535,0.13962634015954636,0.13744467859455345
2025-02-04 15:56:06.230151,9.65,-4.16,-0.33,-0.2083486794568231,0.001090830782496456,0.08617563181722002
2025-02-04 15:56:06.341765,8.84,-4.16,-0.28,0.026179938779914945,0.08617563181722002,-0.15926129424448257
2025-02-04 15:56:06.450757,8.63,-4.7,-0.9,0.09053895494720585,-0.026179938779914945,-0.031634092692397225
2025-02-04 15:56:06.560641,8.73,-4.59,-0.26,-0.0916297857297023,0.0545415391248228,-0.18653206380689397
2025-02-04 15:56:06.671301,8.97,-3.41,-0.13,0.10253809355466686,-0.3752457891787809,0.015271630954950384
2025-02-04 15:56:06.782769,8.06,-2.94,-1.92,0.07090400086226964,-0.4112432050011639,-0.04581489286485115
2025-02-04 15:56:06.893559,8.67,-3.5700000000000003,-0.45,-0.13853550937704992,0.29670597283903605,-0.385063266221249
2025-02-04 15:56:07.003405,8.01,-3.5100000000000002,-0.28,-0.02181661564992912,-0.11671889372712078,-0.3174317577064687
2025-02-04 15:56:07.112622,8.64,-2.37,0.15,-0.3861540970037454,-0.2301652951067522,0.06763150851478027
2025-02-04 15:56:07.224301,9.27,-3.21,-1.53,0.003272492347489368,-0.3108867730114899,0.050178215994836975
2025-02-04 15:56:07.336153,9.06,-3.14,-0.79,0.25743606466916363,0.3785182815262702,0.0818123086872342
2025-02-04 15:56:07.447966,9.1,-4.07,-1.98,0.16144295580947549,-0.22362031041177347,0.29888763440402893
2025-02-04 15:56:07.557867,8.71,-3.56,-1.12,-0.0916297857297023,0.2279836335417593,0.14944381720201447
2025-02-04 15:56:07.666758,9.14,-3.93,-0.88,-0.006544984694978736,0.08835729338221293,0.04363323129985824
2025-02-04 15:56:07.777755,9.03,-3.92,-0.52,0.006544984694978736,0.037088246604879506,0.008726646259971648
2025-02-04 15:56:07.888229,8.76,-3.87,-0.9,0.0545415391248228,0.001090830782496456,-0.013089969389957472
2025-02-04 15:56:07.999660,9.17,-3.92,-0.6,-0.0272707695624114,0.014180800172453928,-0.04036073895236887
